File: Finalized Code/CNN Models/RAMAN Data MITACs/TULSI/PMMA on Si substrate/Si-hydrophobic-with PMMA-1.txt
#Wave		#Intensity
1800.53	133231
1799.56	133277
1798.59	133489
1797.62	132659
1796.65	134252
1795.68	133371
1794.71	133639
1793.74	133030
1792.77	133239
1791.8	133323
1790.83	133353
1789.86	132678
1788.89	133156
1787.92	133660
1786.94	133390
1785.97	133691
1785	132955
1784.03	133253
1783.05	133877
1782.08	133912
1781.11	132823
1780.13	133661
1779.16	134064
1778.19	134032
1777.21	133890
1776.24	134323
1775.27	134281
1774.29	133582
1773.32	133893
1772.34	133981
1771.37	132971
1770.39	133996
1769.42	134549
1768.44	134384
1767.46	133635
1766.49	134310
1765.51	134849
1764.54	134427
1763.56	134767
1762.58	134569
1761.61	134150
1760.63	134933
1759.65	134007
1758.67	134841
1757.7	135023
1756.72	135240
1755.74	135328
1754.76	135445
1753.78	135782
1752.8	135607
1751.83	136109
1750.85	135965
1749.87	136342
1748.89	136643
1747.91	136107
1746.93	136092
1745.95	136045
1744.97	136896
1743.99	137450
1743.01	136212
1742.03	136913
1741.04	137152
1740.06	137205
1739.08	136802
1738.1	137635
1737.12	136986
1736.14	136928
1735.15	136961
1734.17	137175
1733.19	138257
1732.21	137814
1731.22	137925
1730.24	137599
1729.26	138207
1728.27	138229
1727.29	138090
1726.3	138946
1725.32	138017
1724.34	137800
1723.35	138834
1722.37	138285
1721.38	138773
1720.4	138523
1719.41	138644
1718.42	138697
1717.44	138775
1716.45	139583
1715.47	139199
1714.48	138414
1713.49	139340
1712.51	138880
1711.52	139312
1710.53	139221
1709.54	139561
1708.56	138832
1707.57	139268
1706.58	139356
1705.59	140300
1704.61	139161
1703.62	138904
1702.63	140054
1701.64	140378
1700.65	139829
1699.66	141047
1698.67	140840
1697.68	140799
1696.69	140791
1695.7	141295
1694.71	140505
1693.72	141450
1692.73	141238
1691.74	141001
1690.75	141846
1689.75	142594
1688.76	141699
1687.77	142765
1686.78	143105
1685.79	143764
1684.79	142408
1683.8	143126
1682.81	143245
1681.82	144004
1680.82	143719
1679.83	144680
1678.84	144077
1677.84	144331
1676.85	144415
1675.85	146362
1674.86	146044
1673.87	145855
1672.87	147082
1671.88	147337
1670.88	147725
1669.89	148233
1668.89	148274
1667.89	149006
1666.9	149166
1665.9	148916
1664.91	149631
1663.91	150627
1662.91	150050
1661.92	151243
1660.92	151185
1659.92	151534
1658.92	151993
1657.92	152519
1656.93	152712
1655.93	153412
1654.93	154045
1653.93	155225
1652.93	154217
1651.93	156035
1650.93	155924
1649.93	156331
1648.94	158484
1647.94	158980
1646.94	158671
1645.94	160145
1644.93	160683
1643.93	161377
1642.93	161777
1641.93	162533
1640.93	164149
1639.93	165227
1638.93	165091
1637.93	166728
1636.92	167830
1635.92	168348
1634.92	169074
1633.92	170294
1632.91	171188
1631.91	173107
1630.91	174387
1629.9	175357
1628.9	176752
1627.9	178299
1626.89	179411
1625.89	181522
1624.88	183453
1623.88	184675
1622.87	186903
1621.87	188973
1620.86	190463
1619.86	192697
1618.85	193988
1617.85	197085
1616.84	199802
1615.83	201313
1614.83	202900
1613.82	206032
1612.81	207452
1611.81	210651
1610.8	212951
1609.79	215809
1608.78	218627
1607.78	221935
1606.77	223698
1605.76	227643
1604.75	230791
1603.74	232948
1602.73	236363
1601.72	239923
1600.71	244724
1599.7	247920
1598.69	252175
1597.68	255304
1596.67	258848
1595.66	262728
1594.65	266590
1593.64	270889
1592.63	273841
1591.62	275740
1590.61	278749
1589.6	282306
1588.58	284143
1587.57	285899
1586.56	288482
1585.55	289887
1584.54	291992
1583.52	294855
1582.51	297165
1581.5	300043
1580.48	302343
1579.47	304579
1578.46	308011
1577.44	310524
1576.43	312177
1575.41	315638
1574.4	318082
1573.38	320740
1572.37	322269
1571.35	325845
1570.34	327287
1569.32	330145
1568.3	332710
1567.29	335974
1566.27	337856
1565.25	339901
1564.24	343446
1563.22	346244
1562.2	349035
1561.19	350530
1560.17	353304
1559.15	356072
1558.13	357800
1557.12	360970
1556.1	361410
1555.08	363499
1554.06	367216
1553.04	368243
1552.02	368998
1551	372679
1549.98	372218
1548.96	374910
1547.94	375910
1546.92	379070
1545.9	378983
1544.88	381030
1543.86	384635
1542.84	385010
1541.82	387031
1540.79	389545
1539.77	391484
1538.75	393823
1537.73	396271
1536.71	397106
1535.68	399022
1534.66	400518
1533.64	401767
1532.61	402746
1531.59	404080
1530.57	404946
1529.54	404980
1528.52	404497
1527.49	406286
1526.47	406952
1525.45	407636
1524.42	407684
1523.4	408888
1522.37	409254
1521.34	410251
1520.32	411296
1519.29	413219
1518.27	415741
1517.24	416068
1516.21	418465
1515.19	419184
1514.16	420738
1513.13	423563
1512.1	424688
1511.08	425791
1510.05	427245
1509.02	427109
1507.99	427436
1506.96	430287
1505.94	431206
1504.91	432904
1503.88	433713
1502.85	432737
1501.82	434029
1500.79	433368
1499.76	434176
1498.73	434355
1497.7	433904
1496.67	435378
1495.64	434033
1494.61	434896
1493.58	434044
1492.54	435952
1491.51	433584
1490.48	433252
1489.45	433180
1488.42	433882
1487.38	433321
1486.35	432759
1485.32	432437
1484.28	431392
1483.25	430390
1482.22	429827
1481.18	429889
1480.15	428837
1479.12	427599
1478.08	425653
1477.05	424143
1476.01	422057
1474.98	421085
1473.94	420130
1472.91	416964
1471.87	417335
1470.83	414673
1469.8	411644
1468.76	410928
1467.73	409268
1466.69	406729
1465.65	404472
1464.61	402771
1463.58	400058
1462.54	396168
1461.5	393869
1460.46	390349
1459.42	387376
1458.39	384714
1457.35	383149
1456.31	379298
1455.27	377502
1454.23	374720
1453.19	371330
1452.15	371234
1451.11	368498
1450.07	366747
1449.03	365939
1447.99	365158
1446.95	361966
1445.91	360951
1444.87	358857
1443.83	357442
1442.78	355425
1441.74	354116
1440.7	350951
1439.66	350318
1438.62	347275
1437.57	346148
1436.53	344983
1435.49	342532
1434.44	340737
1433.4	337515
1432.36	334964
1431.31	332737
1430.27	329437
1429.22	326754
1428.18	324926
1427.13	321713
1426.09	318278
1425.04	315352
1424	314601
1422.95	312865
1421.91	311720
1420.86	309013
1419.81	307072
1418.77	305708
1417.72	305730
1416.67	303962
1415.63	303752
1414.58	301850
1413.53	301954
1412.48	300773
1411.44	300972
1410.39	299680
1409.34	299834
1408.29	298963
1407.24	297270
1406.19	296414
1405.14	294173
1404.09	293910
1403.04	291855
1401.99	291688
1400.94	291780
1399.89	290241
1398.84	291913
1397.79	290860
1396.74	290516
1395.69	291259
1394.64	292054
1393.58	293094
1392.53	291344
1391.48	292469
1390.43	292587
1389.38	292557
1388.32	292225
1387.27	291985
1386.22	291043
1385.16	290482
1384.11	289441
1383.05	288947
1382	288030
1380.95	287314
1379.89	286395
1378.84	285724
1377.78	284426
1376.73	284205
1375.67	283705
1374.62	283663
1373.56	283159
1372.5	283020
1371.45	282735
1370.39	282460
1369.33	282206
1368.28	282063
1367.22	282313
1366.16	282203
1365.1	281349
1364.05	281957
1362.99	281821
1361.93	280782
1360.87	280319
1359.81	280920
1358.75	280297
1357.69	279891
1356.63	279845
1355.58	279376
1354.52	278193
1353.46	279021
1352.4	279255
1351.33	278018
1350.27	277949
1349.21	277232
1348.15	277515
1347.09	276789
1346.03	275995
1344.97	277272
1343.91	275942
1342.84	276832
1341.78	277093
1340.72	276654
1339.66	277081
1338.59	277825
1337.53	278297
1336.46	277949
1335.4	279038
1334.34	278011
1333.27	278214
1332.21	279220
1331.14	278227
1330.08	279607
1329.01	280127
1327.95	280805
1326.88	280109
1325.82	281055
1324.75	281051
1323.68	281943
1322.62	282501
1321.55	284431
1320.48	285203
1319.42	286236
1318.35	288223
1317.28	288807
1316.21	290046
1315.15	291592
1314.08	293629
1313.01	295610
1311.94	297152
1310.87	298532
1309.8	299544
1308.73	301039
1307.67	303137
1306.59	303777
1305.53	305057
1304.46	305862
1303.38	307212
1302.31	309567
1301.24	311410
1300.17	312642
1299.1	314014
1298.03	315863
1296.96	317675
1295.88	319576
1294.81	320086
1293.74	322996
1292.67	322174
1291.59	322404
1290.52	324950
1289.45	326163
1288.38	327863
1287.3	327816
1286.23	328044
1285.15	328910
1284.08	331060
1283	332816
1281.93	333540
1280.85	334966
1279.78	334998
1278.7	337158
1277.63	338065
1276.55	339658
1275.47	339132
1274.4	340879
1273.32	340452
1272.25	339521
1271.17	338117
1270.09	336803
1269.01	336317
1267.93	333720
1266.86	332805
1265.78	331131
1264.7	329870
1263.62	329278
1262.54	328030
1261.46	326988
1260.38	325757
1259.3	326005
1258.22	324503
1257.14	324982
1256.06	324089
1254.98	323235
1253.9	322124
1252.82	321921
1251.74	321562
1250.66	320415
1249.58	319501
1248.5	317761
1247.41	317352
1246.33	316596
1245.25	314457
1244.17	315123
1243.08	314416
1242	315681
1240.92	314641
1239.83	313697
1238.75	313083
1237.67	312978
1236.58	312270
1235.5	310729
1234.41	310914
1233.33	309578
1232.24	309557
1231.16	309377
1230.07	308251
1228.98	308849
1227.9	308938
1226.81	309504
1225.72	310045
1224.64	309400
1223.55	312190
1222.46	313269
1221.38	313607
1220.29	315432
1219.2	315064
1218.11	316030
1217.02	318517
1215.93	317214
1214.85	319944
1213.76	322348
1212.67	323237
1211.58	323935
1210.49	326440
1209.4	328256
1208.31	329341
1207.22	331222
1206.13	332737
1205.04	334954
1203.94	336249
1202.85	337910
1201.76	341003
1200.67	342569
1199.58	345995
1198.49	346646
1197.39	351455
1196.3	352466
1195.21	355217
1194.11	358227
1193.02	361524
1191.93	364536
1190.83	370161
1189.74	373022
1188.64	378134
1187.55	381920
1186.46	385701
1185.36	392203
1184.26	396304
1183.17	400331
1182.07	404292
1180.98	408053
1179.88	413342
1178.79	418191
1177.69	421808
1176.59	426784
1175.49	430950
1174.4	436311
1173.3	295167
1172.2	296325
1171.1	297891
1170	300069
1168.91	301380
1167.81	303664
1166.71	304729
1165.61	306346
1164.51	306352
1163.41	307490
1162.31	308727
1161.21	309135
1160.11	310553
1159.01	309123
1157.91	311479
1156.81	310785
1155.71	310489
1154.61	310390
1153.5	309809
1152.4	309873
1151.3	308836
1150.2	308909
1149.09	306751
1147.99	306039
1146.89	305679
1145.79	303040
1144.68	302696
1143.58	302120
1142.47	297634
1141.37	296212
1140.26	293934
1139.16	291041
1138.05	288893
1136.95	286933
1135.84	284413
1134.74	422672
1133.63	419368
1132.53	414442
1131.42	411137
1130.31	407356
1129.21	402993
1128.1	400261
1126.99	396374
1125.88	392784
1124.78	388579
1123.67	384528
1122.56	380430
1121.45	377859
1120.34	374379
1119.23	369875
1118.12	364550
1117.02	361554
1115.91	357014
1114.8	351736
1113.69	348578
1112.58	344652
1111.47	339629
1110.35	334742
1109.24	332516
1108.13	329618
1107.02	325554
1105.91	322475
1104.8	317710
1103.68	314622
1102.57	310816
1101.46	309264
1100.35	305098
1099.23	301551
1098.12	300823
1097.01	297918
1095.89	293324
1094.78	291608
1093.66	288733
1092.55	285185
1091.44	284531
1090.32	281630
1089.21	280095
1088.09	276507
1086.97	274190
1085.86	272996
1084.74	271194
1083.62	268922
1082.51	268348
1081.39	267629
1080.27	264497
1079.16	263193
1078.04	262086
1076.92	262432
1075.8	260619
1074.68	259079
1073.57	259467
1072.45	258420
1071.33	256538
1070.21	256260
1069.09	254388
1067.97	254821
1066.85	252315
1065.73	251106
1064.61	250886
1063.49	248925
1062.37	246889
1061.25	245502
1060.12	243882
1059	242729
1057.88	240621
1056.76	238510
1055.64	236761
1054.51	234768
1053.39	233418
1052.27	232473
1051.15	230846
1050.02	229797
1048.9	228818
1047.77	227948
1046.65	226312
1045.53	225303
1044.4	224693
1043.28	223722
1042.15	223394
1041.02	223464
1039.9	222507
1038.77	222365
1037.65	220905
1036.52	220469
1035.39	221032
1034.27	220108
1033.14	220786
1032.01	219781
1030.88	219854
1029.76	219834
1028.63	219326
1027.5	219449
1026.37	218893
1025.24	218518
1024.11	217333
1022.99	217821
1021.86	216600
1020.73	215571
1019.6	214734
1018.47	214609
1017.33	214484
1016.2	214135
1015.07	213924
1013.94	214440
1012.81	214192
1011.68	213337
1010.55	213332
1009.42	213884
1008.28	212562
1007.15	213767
1006.02	213375
1004.88	214751
1003.75	216773
1002.62	221155
1001.48	226308
1000.35	229260
999.215	231184
998.08	229445
996.945	225965
995.811	223833
994.675	222351
993.54	221437
992.404	222800
991.268	224489
990.132	225026
988.995	226223
987.858	228096
986.722	229963
985.584	229998
984.446	231354
983.309	233207
982.171	234278
981.033	235785
979.895	236630
978.756	238373
977.617	237902
976.478	238682
975.338	239877
974.198	240986
973.059	240690
971.919	242026
970.778	242059
969.638	242957
968.497	242932
967.355	243227
966.215	245174
965.073	244615
963.931	244899
962.789	245911
961.646	247160
960.504	248047
959.361	248981
958.218	250182
957.075	250998
955.932	252075
954.788	251751
953.644	253754
952.499	254333
951.354	255332
950.21	255654
949.065	256026
947.92	255962
946.774	257143
945.629	257088
944.482	257730
943.337	258277
942.19	256721
941.043	256964
939.896	256052
938.749	254925
937.602	253523
936.454	252460
935.306	252410
934.158	249112
933.01	249239
931.861	247224
930.712	245686
929.562	243723
928.413	241769
927.264	241128
926.114	239840
924.964	239146
923.813	238168
922.663	236553
921.512	233789
920.36	233092
919.209	231773
918.058	228932
916.906	228354
915.754	226956
914.602	225618
913.449	224606
912.296	222670
911.143	222037
909.989	221247
908.836	219611
907.683	219469
906.528	218622
905.374	217822
904.219	217636
903.064	217841
901.909	218349
900.754	217759
899.599	218109
898.442	217976
897.286	218267
896.13	219110
894.974	218751
893.817	219541
892.66	219563
891.503	220140
890.345	218992
889.188	219383
888.029	220016
886.871	219808
885.712	219799
884.554	218899
883.395	219366
882.235	219400
881.076	219308
879.916	220339
878.756	219115
877.596	218306
876.436	217592
875.274	217057
874.113	217563
872.952	216518
871.791	216210
870.629	215057
869.467	214469
868.305	213984
867.142	212882
865.979	212941
864.816	212660
863.653	213010
862.489	212224
861.326	211526
860.162	211207
858.997	211076
857.833	211696
856.668	210838
855.503	211866
854.338	210952
853.172	209877
852.007	210452
850.841	209826
849.674	209036
848.508	208954
847.341	208188
846.174	208444
845.007	208589
843.839	207508
842.672	207918
841.504	207568
840.335	207346
839.167	206923
837.998	206088
836.829	204772
835.659	205454
834.49	204422
833.32	203682
832.15	202800
830.979	202194
829.81	201812
828.639	200285
827.468	200448
826.296	199152
825.125	198625
823.953	196451
822.781	195716
821.608	194669
820.436	193576
819.264	192165
818.09	191275
816.917	190168
815.743	188814
814.569	187237
813.396	187267
812.221	185831
811.047	185694
809.872	184613
808.696	183086
807.521	182241
806.346	181798
805.17	180420
803.994	179791
802.817	179208
801.641	178752
800.464	177787
799.287	176938
798.109	177186
796.932	176583
795.754	175824
794.576	174879
793.397	175256
792.219	173678
791.04	173774
789.86	172315
788.682	171070
787.502	170100
786.322	170319
785.142	169658
783.961	169195
782.78	168279
781.6	168259
780.419	168286
779.237	167533
778.056	167158
776.873	166911
775.691	167703
774.509	166894
773.326	167468
772.143	167230
770.96	166958
769.776	167497
768.593	166646
767.408	166339
766.225	166671
765.04	166067
763.855	166153
762.67	166223
761.484	166409
760.299	166065
759.113	166923
757.928	166742
756.741	166419
755.555	166114
754.368	166391
753.181	166086
751.993	165920
750.806	165794
749.618	165178
748.43	165083
747.241	165104
746.053	165054
744.864	164670
743.675	164316
742.485	163801
741.296	164287
740.106	164197
738.916	164086
737.726	165270
736.535	163998
735.344	165301
734.152	165092
732.961	164410
731.77	164876
730.577	164105
729.386	163984
728.192	163664
727	164821
725.807	164574
724.614	164551
723.42	164063
722.227	163389
721.032	162859
719.838	162551
718.644	162505
717.449	162209
716.254	161811
715.059	162035
713.863	162735
712.667	163134
711.471	162970
710.274	163109
709.078	164360
707.881	164611
706.684	165052
705.486	165349
704.289	165712
703.091	166547
701.893	166789
700.694	167227
699.495	167197
698.297	167291
697.098	167868
695.897	169232
694.698	169152
693.498	170024
692.298	170470
691.098	170539
689.896	171265
688.695	172555
687.494	171775
686.293	171912
685.091	172430
683.889	172283
682.687	172659
681.483	171545
680.28	171897
679.077	172060
677.874	171663
676.671	172740
675.467	174099
674.263	173122
673.058	174025
671.854	173640
670.648	173739
669.443	174897
668.237	174502
667.031	174226
665.825	174199
664.619	173793
663.413	172798
662.206	172944
660.999	172465
659.792	170328
658.584	170775
657.376	169829
656.168	169328
654.96	168759
653.751	167810
652.542	167228
651.333	167428
650.123	167282
648.914	166960
647.704	166462
646.493	165659
645.283	166653
644.072	167234
642.861	166406
641.649	166916
640.438	166105
639.227	165888
638.015	165661
636.802	165532
635.589	165808
634.376	165320
633.163	165149
631.95	164515
630.736	165245
629.522	164497
628.308	164826
627.094	165083
625.879	165109
624.664	165903
623.448	165510
622.233	165582
621.018	166605
619.801	165940
618.585	165453
617.368	166238
616.151	166914
614.935	166580
613.717	166413
612.499	166338
611.281	164856
610.062	164391
608.845	163817
607.626	163434
606.407	161930
605.188	161325
603.968	159542
602.748	159580
601.528	158709
600.308	157898
599.087	157436
597.866	156593
596.646	155837
595.424	155954
594.202	156368
592.98	155857
591.758	155336
590.535	155070
589.312	154822
588.09	153947
586.866	155923
585.643	155585
584.419	156717
583.195	155780
581.971	157348
580.746	156112
579.521	155982
578.296	156574
577.07	155798
575.845	155754
574.619	155248
573.393	155970
572.166	154937
570.939	155286
569.713	155023
568.485	154612
567.258	154568
566.029	154907
564.802	153962
563.573	153580
562.345	153001
561.115	153087
559.887	153442
558.657	153952
557.428	153486
556.197	154364
554.967	155166
553.736	155443
552.506	155668
551.274	156906
550.043	156089
548.812	157504
547.58	158111
546.348	157928
545.115	158080
543.883	158130
542.649	158048
541.416	158432
540.183	159085
538.949	158850
537.715	158920
536.48	160217
535.246	160250
534.011	161606
532.775	162722
531.54	165334
530.305	167591
529.068	169746
527.833	174557
526.596	180479
525.359	193647
524.122	218819
522.885	272853
521.647	373333
520.409	488798
519.171	521339
517.933	430635
516.694	309576
515.455	234990
514.216	203256
512.977	188946
511.736	181534
510.497	176454
509.257	172713
508.016	170624
506.774	169478
505.534	168827
504.292	167791
503.051	166697
501.809	168158
500.566	168025
499.324	167443
498.081	167468
496.838	167347
495.595	167300
494.352	167401
493.107	167675
491.863	167812
490.619	168483
489.374	168212
488.129	169421
486.884	169061
485.639	168632
484.393	168393
483.146	168722
481.9	169328
480.653	167998
479.406	167911
478.159	168455
476.912	168064
475.664	167953
474.416	169014
473.168	168723
471.919	169673
470.67	169185
469.421	169656
468.172	169094
466.922	169714
465.672	169533
464.422	168761
463.172	168531
461.921	167803
460.67	166936
459.418	167722
458.167	167262
456.915	166636
455.663	166784
454.41	167334
453.157	167100
451.904	166977
450.651	167717
449.397	168282
448.145	168326
446.89	168069
445.636	168754
444.381	168963
443.126	169354
441.871	169917
440.615	169265
439.359	170774
438.104	171063
436.848	171446
435.591	170819
434.334	171330
433.076	172192
431.819	171696
430.562	172567
429.304	172604
428.045	173070
426.787	171740
425.528	173428
424.269	172463
423.01	173806
421.75	174058
420.49	173905
419.229	175165
417.969	174419
416.708	175964
415.447	175376
414.186	176058
412.924	176528
411.662	177894
410.4	178300
409.138	179880
407.875	180934
406.612	181085
405.349	181634
404.085	181326
402.821	182001
401.557	181517
400.293	181995