File: Finalized Code/CNN Models/RAMAN Data MITACs/TULSI/PMMA on Si substrate/Si-hydrophilic-blank with PMMA-4.txt
#Wave		#Intensity
1800.53	6878.98
1799.56	6999.71
1798.59	6980.33
1797.62	6940.42
1796.65	6910.8
1795.68	6968.45
1794.71	6748.94
1793.74	6832.25
1792.77	6805.23
1791.8	6742.32
1790.83	6787.13
1789.86	6821.66
1788.89	6904.88
1787.92	6621.62
1786.94	6648.48
1785.97	6834.14
1785	6753.38
1784.03	6598.4
1783.05	6653.4
1782.08	6782.6
1781.11	6561.17
1780.13	6618.7
1779.16	6768.3
1778.19	6641.63
1777.21	6471.54
1776.24	6546.94
1775.27	6448.5
1774.29	6503.43
1773.32	6560.89
1772.34	6424.2
1771.37	6568.48
1770.39	6426.73
1769.42	6310.57
1768.44	6426.71
1767.46	6259.55
1766.49	6393.52
1765.51	6295.31
1764.54	6523.57
1763.56	6280.04
1762.58	6332.31
1761.61	6320.85
1760.63	6207.46
1759.65	6106.85
1758.67	6207.52
1757.7	6114.59
1756.72	6103.18
1755.74	6193.6
1754.76	6054.92
1753.78	6203.84
1752.8	5940.55
1751.83	6132.68
1750.85	6072.95
1749.87	6130.22
1748.89	6162.03
1747.91	5939.68
1746.93	6065.54
1745.95	5970.32
1744.97	5867.52
1743.99	6003.48
1743.01	5860.09
1742.03	5737.06
1741.04	5786.67
1740.06	5841.34
1739.08	5961.94
1738.1	5795.87
1737.12	5893.61
1736.14	5742.83
1735.15	5810.12
1734.17	5750.67
1733.19	5736.84
1732.21	5745.82
1731.22	5724.4
1730.24	5867.6
1729.26	5628.42
1728.27	5746.27
1727.29	5659.06
1726.3	5627.56
1725.32	5671.97
1724.34	5536.77
1723.35	5611.53
1722.37	5633.15
1721.38	5541.02
1720.4	5504.52
1719.41	5574.17
1718.42	5519.99
1717.44	5463.31
1716.45	5424.34
1715.47	5486.36
1714.48	5487.79
1713.49	5368.06
1712.51	5493.15
1711.52	5383.56
1710.53	5339.6
1709.54	5336.01
1708.56	5367.71
1707.57	5364.11
1706.58	5282.38
1705.59	5432.5
1704.61	5209.72
1703.62	5208.67
1702.63	5343.6
1701.64	5231.75
1700.65	5361.59
1699.66	5229.64
1698.67	5205.94
1697.68	5036.34
1696.69	5294.39
1695.7	5190.22
1694.71	5055.93
1693.72	5110.21
1692.73	5146.88
1691.74	5148.35
1690.75	5132.24
1689.75	5013.16
1688.76	4969.46
1687.77	5056.33
1686.78	4990.05
1685.79	4921.29
1684.79	5030.69
1683.8	4884.18
1682.81	4983.52
1681.82	4992.54
1680.82	4913.82
1679.83	4897.79
1678.84	4987.02
1677.84	4860.74
1676.85	4742.02
1675.85	4881.32
1674.86	4777.67
1673.87	4934.42
1672.87	4760.72
1671.88	4777.28
1670.88	4741.28
1669.89	4747.83
1668.89	4694.35
1667.89	4663.4
1666.9	4707.46
1665.9	4759
1664.91	4608.1
1663.91	4844.52
1662.91	4718.64
1661.92	4520.39
1660.92	4684.28
1659.92	4603.45
1658.92	4535.13
1657.92	4591.6
1656.93	4530.8
1655.93	4557.32
1654.93	4506.52
1653.93	4533.04
1652.93	4492.24
1651.93	4526.22
1650.93	4547.73
1649.93	4584.19
1648.94	4481.13
1647.94	4385.59
1646.94	4464.38
1645.94	4431.12
1644.93	4425.24
1643.93	4538.81
1642.93	4490.62
1641.93	4492.2
1640.93	4381.87
1639.93	4358.61
1638.93	4345.3
1637.93	4289.74
1636.92	4249.11
1635.92	4372.47
1634.92	4279.69
1633.92	4119.88
1632.91	4280.44
1631.91	4339.15
1630.91	4176.95
1629.9	4143.84
1628.9	4202.54
1627.9	4162.01
1626.89	4171.08
1625.89	4227.26
1624.88	4236.32
1623.88	4069.42
1622.87	4147.88
1621.87	4161.91
1620.86	4148.68
1619.86	4063.64
1618.85	3986.07
1617.85	4076.85
1616.84	4038.9
1615.83	4062.83
1614.83	3940.79
1613.82	3999.35
1612.81	3981.23
1611.81	4022.45
1610.8	3957.36
1609.79	4092.48
1608.78	3933.52
1607.78	4051.3
1606.77	3986.26
1605.76	3795.32
1604.75	4117.96
1603.74	3877.7
1602.73	3909
1601.72	3886
1600.71	3870.41
1599.7	3795.63
1598.69	3863.9
1597.68	3885.31
1596.67	3980.65
1595.66	3881.27
1594.65	3789.32
1593.64	3896.93
1592.63	3738.52
1591.62	3838.72
1590.61	3685.31
1589.6	3797.78
1588.58	3708.42
1587.57	3722.43
1586.56	3714.29
1585.55	3693.86
1584.54	3698.03
1583.52	3623.53
1582.51	3664.58
1581.5	3774.41
1580.48	3675.37
1579.47	3799.89
1578.46	3688.61
1577.44	3552.82
1576.43	3625.74
1575.41	3632.37
1574.4	3653.71
1573.38	3689.77
1572.37	3448.64
1571.35	3563.2
1570.34	3621.32
1569.32	3549.49
1568.3	3568.38
1567.29	3565.2
1566.27	3598.77
1565.25	3407
1564.24	3460.18
1563.22	3476.61
1562.2	3500.38
1561.19	3328.36
1560.17	3376.62
1559.15	3361.25
1558.13	3465.74
1557.12	3381.89
1556.1	3398.31
1555.08	3458.73
1554.06	3450.7
1553.04	3366.92
1552.02	3283.18
1551	3338.68
1549.98	3279.4
1548.96	3388.59
1547.94	3331.76
1546.92	3248.11
1545.9	3332.84
1544.88	3256.54
1543.86	3248.56
1542.84	3406.39
1541.82	3261.86
1540.79	3346.51
1539.77	3284.9
1538.75	3225.76
1537.73	3225.1
1536.71	3146.51
1535.68	3104.48
1534.66	3206.09
1533.64	3278.45
1532.61	3124.48
1531.59	3196.83
1530.57	3132.93
1529.54	3321.98
1528.52	3226.48
1527.49	3104.28
1526.47	3178.99
1525.45	3178.34
1524.42	3080.51
1523.4	3169.75
1522.37	3040.4
1521.34	3192.74
1520.32	3172.67
1519.29	3045.82
1518.27	3079.17
1517.24	3066.41
1516.21	3056.08
1515.19	3067.58
1514.16	3103.32
1513.13	3020.27
1512.1	3094.78
1511.08	3043.27
1510.05	2928.79
1509.02	3010.54
1507.99	2942.12
1506.96	3014.15
1505.94	2902.19
1504.91	3061.32
1503.88	3029.24
1502.85	2936.7
1501.82	2853.86
1500.79	2889.55
1499.76	2975.99
1498.73	2820.69
1497.7	2822.53
1496.67	2916.18
1495.64	2886.6
1494.61	2977.78
1493.58	2870.93
1492.54	2865.51
1491.51	2744.25
1490.48	2842.62
1489.45	2832.39
1488.42	2896.94
1487.38	2828.82
1486.35	2830.65
1485.32	2866.23
1484.28	2771.65
1483.25	2853.01
1482.22	2739.2
1481.18	2779.58
1480.15	2779.01
1479.12	2764
1478.08	2845.28
1477.05	2746.02
1476.01	2731.02
1474.98	2723.24
1473.94	2681.8
1472.91	2743.77
1471.87	2560.49
1470.83	2696.97
1469.8	2787.74
1468.76	2808.8
1467.73	2654.48
1466.69	2709.17
1465.65	2638.98
1464.61	2768.08
1463.58	2709.91
1462.54	2634.96
1461.5	2581.63
1460.46	2621.88
1459.42	2611.75
1458.39	2699.94
1457.35	2649.04
1456.31	2653.29
1455.27	2554.49
1454.23	2635.43
1453.19	2701.96
1452.15	2710.98
1451.11	2597.89
1450.07	2571.02
1449.03	2644.69
1447.99	2625
1446.95	2653.17
1445.91	2635.89
1444.87	2697.52
1443.83	2560.69
1442.78	2658.17
1441.74	2554.85
1440.7	2458.75
1439.66	2599.19
1438.62	2615.38
1437.57	2555.14
1436.53	2456.73
1435.49	2470.55
1434.44	2548.79
1433.4	2488.62
1432.36	2547.75
1431.31	2537.68
1430.27	2422.7
1429.22	2403.13
1428.18	2457.46
1427.13	2445.04
1426.09	2468.36
1425.04	2453.56
1424	2407.81
1422.95	2495.41
1421.91	2425.86
1420.86	2363.48
1419.81	2339.2
1418.77	2372.02
1417.72	2331.1
1416.67	2373.42
1415.63	2408.6
1414.58	2389.09
1413.53	2279.27
1412.48	2361.97
1411.44	2254.57
1410.39	2322.99
1409.34	2353.38
1408.29	2369.52
1407.24	2302.56
1406.19	2266.49
1405.14	2263.65
1404.09	2225.23
1403.04	2322.01
1401.99	2127.09
1400.94	2257.04
1399.89	2185.47
1398.84	2158.95
1397.79	2274.6
1396.74	2174.64
1395.69	2252.35
1394.64	2138.23
1393.58	2182.77
1392.53	2161.01
1391.48	2222.1
1390.43	2273.69
1389.38	2202.26
1388.32	2246.74
1387.27	2151.69
1386.22	2198.53
1385.16	2216.98
1384.11	2211.8
1383.05	2227.88
1382	2123.49
1380.95	2170.28
1379.89	2094.28
1378.84	2082.05
1377.78	2112.3
1376.73	2116.58
1375.67	2116.14
1374.62	2155.8
1373.56	2051.6
1372.5	2081.83
1371.45	2161.54
1370.39	2151.67
1369.33	2130.02
1368.28	2061.26
1367.22	2030.22
1366.16	2022.73
1365.1	2137.67
1364.05	2033.67
1362.99	2063.84
1361.93	2065.77
1360.87	2041.81
1359.81	2050.8
1358.75	2080.94
1357.69	2057
1356.63	2068.33
1355.58	2013.86
1354.52	2083.92
1353.46	2013.02
1352.4	2127.68
1351.33	1969.93
1350.27	1934.31
1349.21	1992.58
1348.15	1999.21
1347.09	1980.03
1346.03	2054.68
1344.97	2014.38
1343.91	2009.28
1342.84	1969.01
1341.78	1907.67
1340.72	2015.06
1339.66	1958.42
1338.59	1932.25
1337.53	1938.88
1336.46	1840.15
1335.4	1980.21
1334.34	1961.07
1333.27	1841.34
1332.21	1976.64
1331.14	1882.68
1330.08	1931.39
1329.01	1905.27
1327.95	1909.55
1326.88	1860.09
1325.82	1763.91
1324.75	1913.04
1323.68	1933.66
1322.62	1940.26
1321.55	1960.87
1320.48	1841.44
1319.42	1862.06
1318.35	1817.34
1317.28	1767.99
1316.21	1837.58
1315.15	1942.11
1314.08	1678.31
1313.01	1911.01
1311.94	1819.74
1310.87	1782.09
1309.8	1888.86
1308.73	1844.23
1307.67	1846.17
1306.59	1827.17
1305.53	1859.37
1304.46	1756.61
1303.38	1793.46
1302.31	1788.44
1301.24	1762.49
1300.17	1752.83
1299.1	1836.13
1298.03	1786.95
1296.96	1823.75
1295.88	1783.89
1294.81	1788.16
1293.74	1787.79
1292.67	1789.74
1291.59	1800.97
1290.52	1756.51
1289.45	1661.03
1288.38	1746.5
1287.3	1771.65
1286.23	1741.14
1285.15	1685.15
1284.08	1703.34
1283	1723.84
1281.93	1637.77
1280.85	1753.23
1279.78	1676.45
1278.7	1678.42
1277.63	1715.1
1276.55	1649.95
1275.47	1776.86
1274.4	1658.52
1273.32	1736.8
1272.25	1775.75
1271.17	1685.22
1270.09	1557.75
1269.01	1608.27
1267.93	1520.14
1266.86	1672.27
1265.78	1671.92
1264.7	1653.1
1263.62	1668.92
1262.54	1647.8
1261.46	1635.92
1260.38	1624.04
1259.3	1667.53
1258.22	1692.55
1257.14	1643.78
1256.06	1599.64
1254.98	1606.22
1253.9	1617.41
1252.82	1596.34
1251.74	1536.13
1250.66	1595.67
1249.58	1659.8
1248.5	1643.34
1247.41	1553.26
1246.33	1532.23
1245.25	1561.81
1244.17	1508.59
1243.08	1577.25
1242	1528.65
1240.92	1505.35
1239.83	1562.48
1238.75	1479.45
1237.67	1499.81
1236.58	1538.54
1235.5	1565.77
1234.41	1519.53
1233.33	1553.64
1232.24	1551.02
1231.16	1507.11
1230.07	1506.8
1228.98	1499.6
1227.9	1448.85
1226.81	1489.81
1225.72	1411.59
1224.64	1491.48
1223.55	1502.62
1222.46	1447.34
1221.38	1515.73
1220.29	1494.81
1219.2	1510.52
1218.11	1409.52
1217.02	1441.26
1215.93	1450.1
1214.85	1479.53
1213.76	1499.8
1212.67	1467.48
1211.58	1430.61
1210.49	1393.75
1209.4	1464.28
1208.31	1445.7
1207.22	1463.66
1206.13	1490.75
1205.04	1385.45
1203.94	1453.62
1202.85	1446.47
1201.76	1430.2
1200.67	1379.73
1199.58	1479.76
1198.49	1468.05
1197.39	1435.84
1196.3	1415.03
1195.21	1423.85
1194.11	1341.55
1193.02	1298.01
1191.93	1391.08
1190.83	1431.76
1189.74	1392.77
1188.64	1406.13
1187.55	1469.53
1186.46	1441.93
1185.36	1407.52
1184.26	1282.19
1183.17	1500.12
1182.07	1295.29
1180.98	1320.01
1179.88	1406.05
1178.79	1330.81
1177.69	1366.86
1176.59	1346.14
1175.49	1327.71
1174.4	1402.31
1173.3	1442.85
1172.2	1372.23
1171.1	1290.31
1170	1407.93
1168.91	1382.7
1167.81	1318.96
1166.71	1352.67
1165.61	1313.88
1164.51	1343.04
1163.41	1383.52
1162.31	1285.88
1161.21	1321.83
1160.11	1307.97
1159.01	1339.37
1157.91	1284.8
1156.81	1395.35
1155.71	1349.83
1154.61	1293.04
1153.5	1353.79
1152.4	1342.2
1151.3	1303.52
1150.2	1300.98
1149.09	1352.65
1147.99	1329.79
1146.89	1349.82
1145.79	1288.61
1144.68	1249.98
1143.58	1308.37
1142.47	1346.43
1141.37	1312.33
1140.26	1321.07
1139.16	1221.62
1138.05	1282.21
1136.95	1225.61
1135.84	1337.98
1134.74	1290.41
1133.63	1386.95
1132.53	1379.91
1131.42	1357.11
1130.31	1264.57
1129.21	1316.05
1128.1	1336.01
1126.99	1322.24
1125.88	1285.99
1124.78	1314.94
1123.67	1409.05
1122.56	1296.41
1121.45	1359.03
1120.34	1327.31
1119.23	1318.05
1118.12	1333.48
1117.02	1319.73
1115.91	1332.92
1114.8	1204.76
1113.69	1325.63
1112.58	1273.77
1111.47	1304.89
1110.35	1266.51
1109.24	1275.21
1108.13	1292.87
1107.02	1270.19
1105.91	1225.13
1104.8	1189.04
1103.68	1291.78
1102.57	1349.7
1101.46	1264.38
1100.35	1277.54
1099.23	1239.24
1098.12	1268.05
1097.01	1225.3
1095.89	1265.28
1094.78	1184.55
1093.66	1233.46
1092.55	1244.37
1091.44	1241.88
1090.32	1205.89
1089.21	1194.47
1088.09	1196.45
1086.97	1234.13
1085.86	1298.58
1084.74	1278.23
1083.62	1188.75
1082.51	1195.19
1081.39	1277.42
1080.27	1183.54
1079.16	1212.26
1078.04	1265.47
1076.92	1158.28
1075.8	1180.31
1074.68	1157.8
1073.57	1153.1
1072.45	1217.4
1071.33	1179.31
1070.21	1219.11
1069.09	1205.51
1067.97	1234.16
1066.85	1245.01
1065.73	1173.62
1064.61	1202.26
1063.49	1259.78
1062.37	1223.97
1061.25	1212.61
1060.12	1196.81
1059	1234.29
1057.88	1207.4
1056.76	1231.55
1055.64	1255.69
1054.51	1215.5
1053.39	1259.6
1052.27	1161.78
1051.15	1205.87
1050.02	1267.66
1048.9	1327.22
1047.77	1233.9
1046.65	1235.85
1045.53	1228.95
1044.4	1215.4
1043.28	1254.99
1042.15	1383.07
1041.02	1276.58
1039.9	1395.76
1038.77	1446.33
1037.65	1470.34
1036.52	1558.45
1035.39	1531.6
1034.27	1681.53
1033.14	1716.52
1032.01	1804.51
1030.88	1799.71
1029.76	1865.56
1028.63	1955.66
1027.5	1913.32
1026.37	2001.17
1025.24	2115.45
1024.11	2095.15
1022.99	2050.61
1021.86	2136.15
1020.73	2151.12
1019.6	2230
1018.47	2253.76
1017.33	2268.7
1016.2	2277.02
1015.07	2375.62
1013.94	2480.77
1012.81	2544.07
1011.68	2547.93
1010.55	2639.78
1009.42	2670.01
1008.28	2759.6
1007.15	2717.24
1006.02	2918.88
1004.88	2962.21
1003.75	3135.14
1002.62	3226.73
1001.48	3239.22
1000.35	3357.1
999.215	3553.95
998.08	3555.39
996.945	3890.35
995.811	4012.37
994.675	4298.84
993.54	4471.16
992.404	4838.52
991.268	5006.27
990.132	5450.06
988.995	5867.38
987.858	6194.7
986.722	6629.2
985.584	7113.87
984.446	7099.22
983.309	7401.93
982.171	7472.57
981.033	7731.31
979.895	7639.99
978.756	7780.51
977.617	7883.79
976.478	8135.67
975.338	8182.02
974.198	7961.79
973.059	8215.67
971.919	8251.05
970.778	8279.86
969.638	8426.55
968.497	8365.82
967.355	8457.87
966.215	8493.16
965.073	8707.29
963.931	8609.48
962.789	8703.58
961.646	8782.38
960.504	9026.77
959.361	9229.66
958.218	9181.95
957.075	9262.75
955.932	9382.72
954.788	9422.08
953.644	9550.66
952.499	9751
951.354	9822.89
950.21	10034
949.065	10295
947.92	10321
946.774	10455.8
945.629	10560
944.482	10809.8
943.337	11124.7
942.19	11365.6
941.043	11910.4
939.896	11879.6
938.749	11855.3
937.602	11492.6
936.454	11340.4
935.306	10908.5
934.158	10760.9
933.01	10181.9
931.861	9412.31
930.712	8448.03
929.562	7521
928.413	6325.73
927.264	5332.41
926.114	4564.71
924.964	3741.05
923.813	3528.13
922.663	3222.25
921.512	3033.33
920.36	2842.33
919.209	2811.44
918.058	2663.81
916.906	2602.72
915.754	2571.9
914.602	2558.39
913.449	2540.56
912.296	2550.81
911.143	2368.88
909.989	2381.32
908.836	2365.71
907.683	2341.46
906.528	2407.84
905.374	2351.24
904.219	2357.21
903.064	2328.68
901.909	2332.49
900.754	2312.59
899.599	2232.37
898.442	2246.97
897.286	2224.95
896.13	2241.7
894.974	2228.31
893.817	2270.88
892.66	2203.68
891.503	2158.03
890.345	2226.4
889.188	2195.81
888.029	2173.84
886.871	2186.27
885.712	2065.45
884.554	2206.83
883.395	2163.39
882.235	2092.04
881.076	2098.04
879.916	2161.99
878.756	2079.96
877.596	2100.98
876.436	2066.2
875.274	2095.79
874.113	2082.47
872.952	2056.29
871.791	2130.88
870.629	2091.85
869.467	1999.26
868.305	2108.09
867.142	2028.39
865.979	2040.8
864.816	2003.96
863.653	2014.24
862.489	1985.98
861.326	2051.89
860.162	1972.3
858.997	1926.96
857.833	1922.27
856.668	1977.44
855.503	1868.01
854.338	1959.5
853.172	1901.39
852.007	1960.79
850.841	1977.45
849.674	1977.03
848.508	1912.57
847.341	1895.08
846.174	1969.35
845.007	1892.14
843.839	1985.57
842.672	1985.14
841.504	2012.43
840.335	1958.71
839.167	1896.5
837.998	1917.39
836.829	1959.58
835.659	1837.78
834.49	1905.51
833.32	1962.57
832.15	2068.56
830.979	1923.43
829.81	1918.76
828.639	1956.63
827.468	1998.74
826.296	2004.68
825.125	1968.12
823.953	1920.95
822.781	1984.27
821.608	2036.94
820.436	1996.16
819.264	1999.97
818.09	1914.64
816.917	1954.55
815.743	1992.32
814.569	1915.52
813.396	1906.62
812.221	2041.92
811.047	1886.72
809.872	1858.76
808.696	1888.03
807.521	1896.1
806.346	1851.21
805.17	1888.93
803.994	1822.89
802.817	1938.91
801.641	1758.61
800.464	1849.21
799.287	1764.2
798.109	1725.75
796.932	1765.56
795.754	1716.55
794.576	1707.73
793.397	1673.55
792.219	1755.58
791.04	1700.29
789.86	1607.01
788.682	1623.55
787.502	1686.52
786.322	1570.09
785.142	1550.76
783.961	1560.97
782.78	1628.12
781.6	1631.99
780.419	1505.15
779.237	1635.5
778.056	1580.36
776.873	1459.94
775.691	1495.43
774.509	1543.54
773.326	1490.57
772.143	1469.2
770.96	1510.97
769.776	1508.54
768.593	1518.73
767.408	1488.96
766.225	1476.03
765.04	1473.6
763.855	1437.56
762.67	1451.95
761.484	1502.06
760.299	1409.32
759.113	1469.91
757.928	1444.4
756.741	1465.08
755.555	1439.58
754.368	1414.09
753.181	1499.79
751.993	1348.47
750.806	1297.85
749.618	1329.02
748.43	1349.69
747.241	1353.59
746.053	1395.19
744.864	1355.09
743.675	1306.64
742.485	1348.23
741.296	1360.49
740.106	1343.46
738.916	1263.67
737.726	1292.68
736.535	1269.39
735.344	1290.02
734.152	1308.56
732.961	1291.56
731.77	1372.76
730.577	1339.04
729.386	1334.58
728.192	1350.99
727	1336.08
725.807	1329.53
724.614	1287.51
723.42	1293.49
722.227	1264.01
721.032	1263.73
719.838	1382.3
718.644	1261.1
717.449	1256.66
716.254	1350.15
715.059	1318.61
713.863	1393.3
712.667	1259.73
711.471	1388.53
710.274	1348.68
709.078	1317.18
707.881	1318.97
706.684	1295.81
705.486	1326.72
704.289	1405.43
703.091	1459.17
701.893	1431.84
700.694	1508.4
699.495	1391.75
698.297	1453.75
697.098	1463.82
695.897	1534.08
694.698	1566.95
693.498	1446.26
692.298	1609.84
691.098	1541.04
689.896	1625.72
688.695	1615.01
687.494	1664.4
686.293	1661.97
685.091	1765.2
683.889	1802.1
682.687	1778.92
681.483	1795.1
680.28	1825.76
679.077	1891.59
677.874	1996.7
676.671	1921.8
675.467	2008.24
674.263	2051.23
673.058	2067.32
671.854	2079.27
670.648	2072.62
669.443	2136.22
668.237	2164.67
667.031	2063.01
665.825	2099.72
664.619	2057.98
663.413	2063.72
662.206	1986.93
660.999	1959.68
659.792	1990.19
658.584	1894.91
657.376	2042.92
656.168	1980.65
654.96	1885.43
653.751	1917.98
652.542	1950.52
651.333	1906.85
650.123	1854.96
648.914	1833.98
647.704	1864.44
646.493	1849.64
645.283	1791.64
644.072	1875.56
642.861	1836.09
641.649	1866.52
640.438	1849.67
639.227	1810.23
638.015	1910.5
636.802	1940.89
635.589	1981.53
634.376	1870.24
633.163	1939.62
631.95	2017.17
630.736	1873.12
629.522	1940.4
628.308	1983.04
627.094	2005.16
625.879	2101.06
624.664	2123.15
623.448	2225.13
622.233	2255.37
621.018	2267.17
619.801	2223.67
618.585	2219.09
617.368	2282.05
616.151	2203.8
614.935	2168.54
613.717	2106.7
612.499	2004
611.281	2011.74
610.062	1890.7
608.845	1927.07
607.626	1834.71
606.407	1791.41
605.188	1672.57
603.968	1741.63
602.748	1628.97
601.528	1689.84
600.308	1575.21
599.087	1562.63
597.866	1590.84
596.646	1419.21
595.424	1471.9
594.202	1483.81
592.98	1532.39
591.758	1407.78
590.535	1405.43
589.312	1427.52
588.09	1404.82
586.866	1414.69
585.643	1461.18
584.419	1460.86
583.195	1440.2
581.971	1372.77
580.746	1405
579.521	1455.52
578.296	1434.87
577.07	1400.02
575.845	1401.74
574.619	1387.22
573.393	1346.3
572.166	1490.15
570.939	1437.05
569.713	1526.02
568.485	1564.23
567.258	1616.63
566.029	1616.27
564.802	1662.55
563.573	1725.03
562.345	1805.71
561.115	1858
559.887	1871.77
558.657	1954.39
557.428	2006.61
556.197	2131.68
554.967	2193.96
553.736	2237.99
552.506	2397.32
551.274	2518.15
550.043	2533.78
548.812	2854.67
547.58	2854.05
546.348	3120.17
545.115	3299.3
543.883	3565.21
542.649	3861.29
541.416	4191.57
540.183	4685.21
538.949	5003.05
537.715	5461.99
536.48	5971.17
535.246	6845.16
534.011	7759.1
532.775	8777.47
531.54	10418.2
530.305	12553.9
529.068	14867.9
527.833	19231.4
526.596	26100.1
525.359	38399.6
524.122	64026.8
522.885	121473
521.647	233519
520.409	372639
519.171	408346
517.933	294163
516.694	154606
515.455	77789.5
514.216	45000.5
512.977	29417.9
511.736	21307.4
510.497	16441.4
509.257	12874.4
508.016	10583.4
506.774	8841.33
505.534	7609.57
504.292	6643.12
503.051	5885.65
501.809	5094.42
500.566	4530.05
499.324	4132.26
498.081	3820.8
496.838	3451.38
495.595	3334.46
494.352	3227.61
493.107	3086.77
491.863	2913.97
490.619	2749.26
489.374	2746.65
488.129	2550.04
486.884	2569.47
485.639	2299.02
484.393	2378.46
483.146	2260.04
481.9	2075.74
480.653	2099.25
479.406	2128.74
478.159	2030.44
476.912	1926.2
475.664	1867.9
474.416	1783.69
473.168	1701.51
471.919	1784.9
470.67	1738.65
469.421	1630.62
468.172	1632.25
466.922	1637.87
465.672	1547.86
464.422	1561.46
463.172	1489.43
461.921	1538.87
460.67	1399.21
459.418	1392.93
458.167	1420.47
456.915	1384.36
455.663	1515.3
454.41	1592.5
453.157	1818.74
451.904	1875.97
450.651	1881.52
449.397	1928.77
448.145	2009.77
446.89	2062.93
445.636	2137.91
444.381	2224.76
443.126	2259.98
441.871	2376.52
440.615	2395.83
439.359	2532.12
438.104	2598.96
436.848	2665.77
435.591	2833.61
434.334	2973.64
433.076	3002.7
431.819	2851.53
430.562	2985.53
429.304	2830.48
428.045	2845.68
426.787	2803.5
425.528	2824.64
424.269	2812.15
423.01	2823.39
421.75	2664.62
420.49	2693.68
419.229	2778.04
417.969	2645.07
416.708	2601.04
415.447	2602.43
414.186	2633.44
412.924	2666.41
411.662	2580.97
410.4	2726.38
409.138	2674.5
407.875	2620.66
406.612	2631.91
405.349	2656.95
404.085	2614.98
402.821	2638.04
401.557	2578.36
400.293	2644.74