File: Finalized Code/CNN Models/RAMAN Data MITACs/TULSI/PMMA on Si substrate/Si-hydrophobic-blank with PMMA-1.txt
#Wave		#Intensity
1800.53	2489.07
1799.56	2368.34
1798.59	2355.03
1797.62	2341.72
1796.65	2400.3
1795.68	2369.02
1794.71	2466.06
1793.74	2401.42
1792.77	2441.98
1791.8	2410.72
1790.83	2382.03
1789.86	2386.68
1788.89	2424.65
1787.92	2452.36
1786.94	2431.37
1785.97	2471.87
1785	2384.3
1784.03	2342.85
1783.05	2444.78
1782.08	2377.75
1781.11	2351.68
1780.13	2420.29
1779.16	2455.62
1778.19	2378.4
1777.21	2459.75
1776.24	2479.71
1775.27	2351.42
1774.29	2435.27
1773.32	2478.22
1772.34	2513.48
1771.37	2321.44
1770.39	2412.9
1769.42	2338.38
1768.44	2404.27
1767.46	2340
1766.49	2405.86
1765.51	2364.57
1764.54	2427.85
1763.56	2455.41
1762.58	2454.92
1761.61	2423.84
1760.63	2476.87
1759.65	2501.85
1758.67	2371.44
1757.7	2449.91
1756.72	2482.52
1755.74	2372.56
1754.76	2504.43
1753.78	2475.94
1752.8	2396.57
1751.83	2429.16
1750.85	2454.1
1749.87	2443.44
1748.89	2361.6
1747.91	2429.75
1746.93	2464.84
1745.95	2515.16
1744.97	2451.15
1743.99	2422.72
1743.01	2391.77
1742.03	2403.98
1741.04	2431.42
1740.06	2408.09
1739.08	2412.68
1738.1	2442.64
1737.12	2487.79
1736.14	2484.76
1735.15	2403.14
1734.17	2529.38
1733.19	2399.64
1732.21	2447.29
1731.22	2555.72
1730.24	2504.56
1729.26	2453.42
1728.27	2528.86
1727.29	2515.7
1726.3	2429.16
1725.32	2446.38
1724.34	2491.42
1723.35	2576.9
1722.37	2583.97
1721.38	2436.83
1720.4	2539.96
1719.41	2430.8
1718.42	2463.15
1717.44	2465.18
1716.45	2525.3
1715.47	2565.18
1714.48	2557.1
1713.49	2475.82
1712.51	2561.11
1711.52	2606.01
1710.53	2580.26
1709.54	2476.35
1708.56	2554.01
1707.57	2540.89
1706.58	2520.22
1705.59	2529.79
1704.61	2549.44
1703.62	2586.7
1702.63	2659.21
1701.64	2625.94
1700.65	2632.97
1699.66	2753.24
1698.67	2667.13
1697.68	2804.96
1696.69	2822
1695.7	2914.47
1694.71	3019.48
1693.72	3011.33
1692.73	2983.08
1691.74	3135.75
1690.75	3212.99
1689.75	3521.27
1688.76	3523.07
1687.77	3703.12
1686.78	3825.37
1685.79	4037.91
1684.79	4267.94
1683.8	4402.54
1682.81	4542.1
1681.82	4593.84
1680.82	4788.47
1679.83	4744.89
1678.84	4911.84
1677.84	4870.76
1676.85	4892.32
1675.85	4948.94
1674.86	5010.54
1673.87	4999.51
1672.87	5031.04
1671.88	5147.65
1670.88	5084.06
1669.89	5213.11
1668.89	5094.51
1667.89	5108.49
1666.9	4879.96
1665.9	4881.47
1664.91	4655.58
1663.91	4577.19
1662.91	4448.86
1661.92	4208.21
1660.92	3847.8
1659.92	3722.2
1658.92	3636.59
1657.92	3538.53
1656.93	3465.46
1655.93	3295.14
1654.93	3159.8
1653.93	3156.67
1652.93	3123.62
1651.93	3033.27
1650.93	2942.94
1649.93	2942.35
1648.94	2901.9
1647.94	2851.51
1646.94	2768.76
1645.94	2651.2
1644.93	2678.04
1643.93	2779.53
1642.93	2647.11
1641.93	2765.96
1640.93	2623.65
1639.93	2670.36
1638.93	2659.88
1637.93	2733.9
1636.92	2653.83
1635.92	2658.26
1634.92	2667.66
1633.92	2808.67
1632.91	2639.27
1631.91	2698.31
1630.91	2556.3
1629.9	2650.07
1628.9	2654.5
1627.9	2693.65
1626.89	2645.99
1625.89	2754.54
1624.88	2637.48
1623.88	2807.95
1622.87	2757.82
1621.87	2739.92
1620.86	2764.14
1619.86	2731.38
1618.85	2698.64
1617.85	2764.93
1616.84	2670.33
1615.83	2857.83
1614.83	2879.52
1613.82	2940.77
1612.81	2809.11
1611.81	2944.52
1610.8	3003.25
1609.79	3150.92
1608.78	3150.28
1607.78	3317.62
1606.77	3428.09
1605.76	3785.44
1604.75	4241.4
1603.74	4753.95
1602.73	5480.98
1601.72	6530.94
1600.71	7888.82
1599.7	8787.42
1598.69	9517.98
1597.68	9617.12
1596.67	9080.31
1595.66	8114.93
1594.65	7241.1
1593.64	6520.34
1592.63	5841.75
1591.62	5441.67
1590.61	4894.05
1589.6	4445.1
1588.58	4306.39
1587.57	3914.33
1586.56	3733.97
1585.55	3711.08
1584.54	3552.96
1583.52	3483.41
1582.51	3352.44
1581.5	3477.08
1580.48	3289.65
1579.47	3537.07
1578.46	3425.84
1577.44	3447.24
1576.43	3463.72
1575.41	3335.4
1574.4	3236.57
1573.38	3049.46
1572.37	3046.38
1571.35	3008.98
1570.34	2866.16
1569.32	2880.29
1568.3	2771.87
1567.29	2898.72
1566.27	2704.59
1565.25	2765.28
1564.24	2715.74
1563.22	2653.98
1562.2	2766.04
1561.19	2603.95
1560.17	2667.04
1559.15	2556.41
1558.13	2621.93
1557.12	2697.2
1556.1	2630.64
1555.08	2725.43
1554.06	2580.69
1553.04	2519.08
1552.02	2533.22
1551	2569.34
1549.98	2505.33
1548.96	2568.3
1547.94	2604.39
1546.92	2511.12
1545.9	2456.93
1544.88	2534.49
1543.86	2482.76
1542.84	2474.94
1541.82	2479.31
1540.79	2483.68
1539.77	2529.47
1538.75	2570.38
1537.73	2574.72
1536.71	2464.61
1535.68	2481.15
1534.66	2514.72
1533.64	2592.09
1532.61	2557.5
1531.59	2510.75
1530.57	2500.51
1529.54	2587.55
1528.52	2458.16
1527.49	2530.58
1526.47	2554.37
1525.45	2563.57
1524.42	2524.17
1523.4	2492.08
1522.37	2511
1521.34	2549.34
1520.32	2378.89
1519.29	2473.06
1518.27	2428.88
1517.24	2535.12
1516.21	2420.61
1515.19	2420.11
1514.16	2480.23
1513.13	2499.12
1512.1	2469.52
1511.08	2393.91
1510.05	2531.5
1509.02	2547.94
1507.99	2600.69
1506.96	2573.53
1505.94	2510.07
1504.91	2533.75
1503.88	2496.94
1502.85	2554.49
1501.82	2527.36
1500.79	2478.49
1499.76	2625.45
1498.73	2593.49
1497.7	2489.05
1496.67	2635.92
1495.64	2632.96
1494.61	2649.33
1493.58	2762.27
1492.54	2964.49
1491.51	2927.68
1490.48	2917.43
1489.45	2764.84
1488.42	2947.59
1487.38	2652.77
1486.35	2729.39
1485.32	2601.06
1484.28	2689.71
1483.25	2665.06
1482.22	2606.69
1481.18	2632.65
1480.15	2682.69
1479.12	2600.28
1478.08	2727.32
1477.05	2647.34
1476.01	2591.46
1474.98	2728.05
1473.94	2749.14
1472.91	2760.6
1471.87	2683.1
1470.83	2668.13
1469.8	2778.13
1468.76	2775.16
1467.73	2834.65
1466.69	2858.08
1465.65	2876.71
1464.61	2912.13
1463.58	3065.15
1462.54	2930.13
1461.5	3001.51
1460.46	3152.02
1459.42	3141.78
1458.39	3172.3
1457.35	3255.56
1456.31	3300.43
1455.27	3175.14
1454.23	3181.68
1453.19	3118.75
1452.15	3098.95
1451.11	3148.59
1450.07	3191.04
1449.03	3109.01
1447.99	3254.34
1446.95	3282.38
1445.91	3274.53
1444.87	3312.12
1443.83	3266.01
1442.78	3224.7
1441.74	3276.62
1440.7	3340.46
1439.66	3239.44
1438.62	3119.35
1437.57	3111.54
1436.53	3067.93
1435.49	2998.07
1434.44	2906.77
1433.4	2860.84
1432.36	2805.38
1431.31	2668.86
1430.27	2789.92
1429.22	2734.52
1428.18	2667.21
1427.13	2735.77
1426.09	2527.93
1425.04	2710.83
1424	2576.9
1422.95	2543.03
1421.91	2609.17
1420.86	2611.01
1419.81	2589.06
1418.77	2619.45
1417.72	2599.89
1416.67	2658.81
1415.63	2567.91
1414.58	2657.71
1413.53	2609.63
1412.48	2514.04
1411.44	2577.67
1410.39	2520.13
1409.34	2576.61
1408.29	2568.96
1407.24	2530.45
1406.19	2482.46
1405.14	2621.94
1404.09	2545.49
1403.04	2604.26
1401.99	2530.21
1400.94	2655.35
1399.89	2548.13
1398.84	2609.22
1397.79	2613.42
1396.74	2634.21
1395.69	2595.77
1394.64	2609.44
1393.58	2618.37
1392.53	2511.32
1391.48	2600.73
1390.43	2697.2
1389.38	2590.19
1388.32	2686.62
1387.27	2809.02
1386.22	2692.61
1385.16	2656.6
1384.11	2842.73
1383.05	2653.14
1382	2756.52
1380.95	2678.02
1379.89	2634.97
1378.84	2735.93
1377.78	2664.56
1376.73	2760.76
1375.67	2710.65
1374.62	2728.96
1373.56	2681.23
1372.5	2628.81
1371.45	2623.55
1370.39	2719.63
1369.33	2671.95
1368.28	2650.19
1367.22	2616.67
1366.16	2632.61
1365.1	2533.19
1364.05	2645.65
1362.99	2715.7
1361.93	2750.43
1360.87	2801.61
1359.81	2676.39
1358.75	2729.92
1357.69	2675.28
1356.63	2702.93
1355.58	2634.23
1354.52	2758.2
1353.46	2609.65
1352.4	2552.75
1351.33	2714.23
1350.27	2584.56
1349.21	2642.7
1348.15	2623.38
1347.09	2683.83
1346.03	2608.22
1344.97	2743.69
1343.91	2656.37
1342.84	2681.61
1341.78	2676.37
1340.72	2633.64
1339.66	2548.76
1338.59	2742.63
1337.53	2547.7
1336.46	2643.16
1335.4	2626.23
1334.34	2660.79
1333.27	2723.41
1332.21	2605.88
1331.14	2663.81
1330.08	2553.36
1329.01	2629.98
1327.95	2732.28
1326.88	2720.03
1325.82	2649.37
1324.75	2606.78
1323.68	2617.92
1322.62	2724.78
1321.55	2791.91
1320.48	2718.98
1319.42	2720.75
1318.35	2797.17
1317.28	2773.27
1316.21	2747.04
1315.15	2657.87
1314.08	2717.93
1313.01	2666.09
1311.94	2779.71
1310.87	2688.28
1309.8	2743.62
1308.73	2708.12
1307.67	2700.58
1306.59	2679.07
1305.53	2734.36
1304.46	2784.98
1303.38	2623.9
1302.31	2667.54
1301.24	2648.39
1300.17	2710.6
1299.1	2677.5
1298.03	2611.88
1296.96	2729.82
1295.88	2694.42
1294.81	2679.92
1293.74	2709.55
1292.67	2702.02
1291.59	2699.14
1290.52	2726.42
1289.45	2872.01
1288.38	2653.39
1287.3	2752.55
1286.23	2893.4
1285.15	2844.12
1284.08	2855.12
1283	2907.82
1281.93	2972.07
1280.85	3110.42
1279.78	3137.56
1278.7	3062.82
1277.63	3219.58
1276.55	3265.19
1275.47	3232.12
1274.4	3298.53
1273.32	3371.85
1272.25	3315.65
1271.17	3331.14
1270.09	3390.54
1269.01	3357.49
1267.93	3483.85
1266.86	3453.1
1265.78	3470.85
1264.7	3504.76
1263.62	3515.58
1262.54	3604.85
1261.46	3668.7
1260.38	3614.88
1259.3	3544.94
1258.22	3666.41
1257.14	3601.1
1256.06	3475.88
1254.98	3498.2
1253.9	3343.1
1252.82	3358.53
1251.74	3406.19
1250.66	3278.84
1249.58	3259.74
1248.5	3167
1247.41	3138.73
1246.33	3331.32
1245.25	3291.53
1244.17	3164.36
1243.08	3062.53
1242	3034.31
1240.92	3111.82
1239.83	2996.28
1238.75	2997.95
1237.67	2983.55
1236.58	2893.37
1235.5	2947.86
1234.41	2869.21
1233.33	2909.92
1232.24	2870.3
1231.16	2881.17
1230.07	2724.62
1228.98	2941.88
1227.9	2787.67
1226.81	2952.11
1225.72	2907.96
1224.64	2804.25
1223.55	2838.02
1222.46	2791.63
1221.38	2736.1
1220.29	2740.1
1219.2	2789.88
1218.11	2773.28
1217.02	2868.78
1215.93	2879.62
1214.85	2792.12
1213.76	2777.82
1212.67	2788.67
1211.58	2751.52
1210.49	2796.64
1209.4	2882.86
1208.31	2733.81
1207.22	2835.99
1206.13	2892.47
1205.04	2846.22
1203.94	2920.93
1202.85	2943.13
1201.76	3017.79
1200.67	2951.02
1199.58	3059.85
1198.49	3143.55
1197.39	3106.43
1196.3	3180.97
1195.21	3291.94
1194.11	3530.4
1193.02	3463.63
1191.93	3651.87
1190.83	3780.85
1189.74	3843.78
1188.64	4020.45
1187.55	3933.16
1186.46	3973.28
1185.36	4029.29
1184.26	3844.3
1183.17	3909.41
1182.07	3919.96
1180.98	3894.14
1179.88	3934.21
1178.79	4169.57
1177.69	4193.68
1176.59	4383.48
1175.49	4604.98
1174.4	4676.63
1173.3	4696.06
1172.2	4824.37
1171.1	4843.76
1170	4695.38
1168.91	4608.26
1167.81	4480.38
1166.71	4545.15
1165.61	4353.91
1164.51	4577.21
1163.41	4578.52
1162.31	4677.17
1161.21	4667.13
1160.11	4894.71
1159.01	4703.64
1157.91	4551.1
1156.81	4321.73
1155.71	4090.2
1154.61	3883.63
1153.5	3751.73
1152.4	3534.02
1151.3	3463.24
1150.2	3442.19
1149.09	3312.75
1147.99	3424.94
1146.89	3227.84
1145.79	3367.08
1144.68	3305.45
1143.58	3257.39
1142.47	3231.89
1141.37	3174.84
1140.26	3106.54
1139.16	3169
1138.05	3021.86
1136.95	3070.79
1135.84	3103.93
1134.74	3125.8
1133.63	3131.9
1132.53	3095.22
1131.42	3065.31
1130.31	3051.17
1129.21	3064.02
1128.1	3000.4
1126.99	2988.53
1125.88	3005.88
1124.78	2985.02
1123.67	2806.86
1122.56	2916.36
1121.45	2985.38
1120.34	2870.22
1119.23	2813.48
1118.12	2801.66
1117.02	2868.4
1115.91	2816.19
1114.8	2824.57
1113.69	2792.57
1112.58	2848.05
1111.47	2811.57
1110.35	2750.46
1109.24	2743.16
1108.13	2711.21
1107.02	2739.76
1105.91	2766.06
1104.8	2682.62
1103.68	2769.37
1102.57	2710.59
1101.46	2761.49
1100.35	2700.5
1099.23	2802.83
1098.12	2811.18
1097.01	2841.89
1095.89	2689.28
1094.78	2630.6
1093.66	2634.52
1092.55	2797.05
1091.44	2740.62
1090.32	2719.94
1089.21	2636.76
1088.09	2645.13
1086.97	2689.21
1085.86	2699.8
1084.74	2712.61
1083.62	2656.28
1082.51	2836.34
1081.39	2668.54
1080.27	2703.63
1079.16	2645.12
1078.04	2771.56
1076.92	2699.69
1075.8	2725.85
1074.68	2763.12
1073.57	2655.69
1072.45	2623.97
1071.33	2565.56
1070.21	2760.79
1069.09	2771.33
1067.97	2721.82
1066.85	2710.13
1065.73	2727.34
1064.61	2657.87
1063.49	2603.98
1062.37	2685.62
1061.25	2625.09
1060.12	2671.17
1059	2732.76
1057.88	2745.5
1056.76	2713.85
1055.64	2702.18
1054.51	2657.25
1053.39	2665.56
1052.27	2696.04
1051.15	2713.2
1050.02	2763.6
1048.9	2716.48
1047.77	2680.46
1046.65	2775.13
1045.53	2834.33
1044.4	2754.03
1043.28	2813.21
1042.15	2870.15
1041.02	2820.87
1039.9	2877.78
1038.77	3067.36
1037.65	3210.43
1036.52	3448.49
1035.39	3823.48
1034.27	4702.1
1033.14	5478.73
1032.01	6093.8
1030.88	5926.89
1029.76	5466.42
1028.63	4710.37
1027.5	4045.11
1026.37	3713.3
1025.24	3375.01
1024.11	3327.98
1022.99	3166.32
1021.86	3015.74
1020.73	2962.2
1019.6	3093.79
1018.47	2936.71
1017.33	3037.41
1016.2	3027.96
1015.07	3051.53
1013.94	3143.34
1012.81	3270.31
1011.68	3370.83
1010.55	3422.91
1009.42	3615.73
1008.28	3861.24
1007.15	4526.54
1006.02	5679.5
1004.88	7746.12
1003.75	11011.4
1002.62	14534.6
1001.48	16070.9
1000.35	14805
999.215	11566.2
998.08	8671.19
996.945	6624.34
995.811	5780.53
994.675	5059.91
993.54	4857.09
992.404	4823.17
991.268	4765.16
990.132	4862.76
988.995	4863.92
987.858	4663.55
986.722	4785.2
985.584	4668.13
984.446	4467.94
983.309	4311.59
982.171	4172.82
981.033	4088.8
979.895	3965.45
978.756	3931.8
977.617	3616.14
976.478	3737.77
975.338	3649.56
974.198	3572.32
973.059	3538.79
971.919	3564.24
970.778	3668.29
969.638	3669.7
968.497	3808.6
967.355	3788.15
966.215	3854.97
965.073	3884.69
963.931	4045.24
962.789	4074.9
961.646	4093.65
960.504	4186.49
959.361	4183.42
958.218	4328.48
957.075	4218.66
955.932	4193.81
954.788	4112.36
953.644	4081.01
952.499	3969.17
951.354	3909.58
950.21	3891.34
949.065	3673.04
947.92	3650.52
946.774	3623.66
945.629	3501.18
944.482	3661.22
943.337	3564.86
942.19	3522.83
941.043	3582.88
939.896	3543.04
938.749	3550.96
937.602	3532.84
936.454	3584.16
935.306	3652.81
934.158	3552.27
933.01	3553.68
931.861	3386
930.712	3469.8
929.562	3289.22
928.413	3370.84
927.264	3326.8
926.114	3274.12
924.964	3098.06
923.813	3121.2
922.663	3135.69
921.512	3091.74
920.36	3004.56
919.209	2973.64
918.058	2856.25
916.906	2901.03
915.754	2900.41
914.602	2828.49
913.449	2875.41
912.296	2835.92
911.143	2893.61
909.989	2832.54
908.836	2784.45
907.683	2889.6
906.528	2778.95
905.374	2836.59
904.219	2795.01
903.064	2839.69
901.909	2778.72
900.754	2726.4
899.599	2784
898.442	2753.24
897.286	2774.19
896.13	2711.15
894.974	2779.46
893.817	2802.55
892.66	2931.07
891.503	2868.04
890.345	2843.77
889.188	2800.15
888.029	2855.45
886.871	2811.84
885.712	2867.12
884.554	2713.94
883.395	2820.78
882.235	2815.88
881.076	2791.65
879.916	2765.29
878.756	2803.34
877.596	2691.14
876.436	2733.48
875.274	2797.24
874.113	2830.96
872.952	2862.51
871.791	2885.48
870.629	2794.84
869.467	2933.53
868.305	2832.21
867.142	2835.88
865.979	2775.32
864.816	2948.14
863.653	2861.89
862.489	2895.51
861.326	2937.68
860.162	3058.99
858.997	3015.55
857.833	3076.92
856.668	3136.11
855.503	3156.81
854.338	3194.6
853.172	3200.32
852.007	3056.53
850.841	3072.95
849.674	3138.48
848.508	3110.06
847.341	3036.83
846.174	3087.38
845.007	3061.12
843.839	3075.39
842.672	3074.73
841.504	3131.63
840.335	3222.6
839.167	3275.18
837.998	3393.78
836.829	3452.69
835.659	3430.66
834.49	3310.69
833.32	3361.07
832.15	3204.99
830.979	3359.62
829.81	3122.77
828.639	3253.96
827.468	3146.95
826.296	2986.83
825.125	3032.95
823.953	2945.17
822.781	2967.91
821.608	2916.29
820.436	2943.27
819.264	2944.76
818.09	2886.81
816.917	2833.14
815.743	2934.37
814.569	2797.98
813.396	2867.36
812.221	2934.59
811.047	2942.44
809.872	2823.12
808.696	2970.84
807.521	2951.13
806.346	2937.79
805.17	2714.8
803.994	2798.91
802.817	2916.84
801.641	2971.23
800.464	3040.41
799.287	3014.37
798.109	3102.55
796.932	3178
795.754	3268.22
794.576	3324.58
793.397	3131.57
792.219	3101.32
791.04	3079.53
789.86	2924.71
788.682	3031.75
787.502	2904.45
786.322	2986.12
785.142	2852.56
783.961	2896.24
782.78	2876.63
781.6	2802.22
780.419	2761.56
779.237	2792.57
778.056	2905.76
776.873	2848.25
775.691	2727.58
774.509	2792.27
773.326	2800.09
772.143	2852.1
770.96	2805.19
769.776	2821.42
768.593	2879.7
767.408	2799.17
766.225	2785.95
765.04	2753.81
763.855	2799.45
762.67	2868.19
761.484	2781.44
760.299	2829.14
759.113	2752.93
757.928	2834.22
756.741	2823.11
755.555	2799.41
754.368	2836.57
753.181	2846.45
751.993	2824.86
750.806	2853.6
749.618	2873.95
748.43	2833.51
747.241	2732.32
746.053	2809.24
744.864	2787.68
743.675	2828.96
742.485	2843
741.296	2813.08
740.106	2921.29
738.916	2876.72
737.726	2888.65
736.535	2781.37
735.344	2745.22
734.152	2796.89
732.961	2835.99
731.77	2929.4
730.577	2924.59
729.386	2852.94
728.192	2864.85
727	2954
725.807	3049.37
724.614	2963.15
723.42	2970.85
722.227	3120.39
721.032	3180.19
719.838	3162.82
718.644	3112.11
717.449	3248.98
716.254	3152.43
715.059	3226.74
713.863	3138.56
712.667	3112.9
711.471	3087.24
710.274	3090.73
709.078	3169.13
707.881	3249.58
706.684	3207.28
705.486	3431.17
704.289	3613.38
703.091	3776.8
701.893	4407.73
700.694	4886.72
699.495	5654.24
698.297	6631.18
697.098	7323.23
695.897	7502.24
694.698	7347.03
693.498	6928.36
692.298	6196.62
691.098	5566.83
689.896	5217.25
688.695	4847.09
687.494	4723.75
686.293	4353.85
685.091	4056.64
683.889	3745.05
682.687	3533
681.483	3292.05
680.28	3165.07
679.077	3023.65
677.874	2954.71
676.671	2987.16
675.467	2996.86
674.263	2876.27
673.058	2937.67
671.854	2872.95
670.648	2981.85
669.443	2939.88
668.237	2864.88
667.031	2856
665.825	2876.02
664.619	2854.75
663.413	2975.89
662.206	2801.93
660.999	2854.95
659.792	2903.83
658.584	2787.73
657.376	2807.73
656.168	2930.78
654.96	2775.6
653.751	2752.33
652.542	2877.38
651.333	2887.04
650.123	2902.88
648.914	2817.86
647.704	2907.79
646.493	2843.38
645.283	2799.56
644.072	2885.33
642.861	2888.81
641.649	2927.24
640.438	2838.22
639.227	2849.93
638.015	2861.64
636.802	2910.3
635.589	2946.63
634.376	2982.94
633.163	2955.61
631.95	2959.07
630.736	3007.66
629.522	3013.16
628.308	3090.42
627.094	3216.87
625.879	3425.24
624.664	3512.62
623.448	3681.91
622.233	3775.34
621.018	4028.47
619.801	4426.87
618.585	4958.15
617.368	5186.3
616.151	4945.75
614.935	4355.49
613.717	4139.77
612.499	3674.68
611.281	3557.34
610.062	3260.18
608.845	3206.34
607.626	3046.27
606.407	2953.69
605.188	3051.07
603.968	3040.19
602.748	3057.9
601.528	3134.78
600.308	3230
599.087	3272.13
597.866	3406.02
596.646	3509.27
595.424	3769.45
594.202	3760.47
592.98	3824.86
591.758	3766.97
590.535	3668.38
589.312	3753.11
588.09	3479.46
586.866	3437.99
585.643	3370.08
584.419	3228.95
583.195	3283.17
581.971	3028.23
580.746	2997.07
579.521	2923.23
578.296	2995.76
577.07	2934.14
575.845	2890.84
574.619	2896.3
573.393	2942.36
572.166	2848.33
570.939	2912.66
569.713	2914.05
568.485	2878.92
567.258	2967.54
566.029	2922.27
564.802	2947.99
563.573	2963.56
562.345	3009.52
561.115	2826.5
559.887	2967.68
558.657	2997.41
557.428	3049.4
556.197	2939.41
554.967	2977.22
553.736	3035.25
552.506	3032.56
551.274	2944.92
550.043	2954.39
548.812	2923.41
547.58	2967.24
546.348	2962.55
545.115	3024.53
543.883	2916.8
542.649	3005.02
541.416	2976.09
540.183	3106.65
538.949	3047.44
537.715	3188.01
536.48	3161.09
535.246	3172.49
534.011	3222.21
532.775	3277.94
531.54	3242.96
530.305	3383.3
529.068	3573.95
527.833	3768.54
526.596	4017.41
525.359	4731.25
524.122	6145.24
522.885	9297.34
521.647	15101.8
520.409	20423
519.171	20881.1
517.933	15570.4
516.694	9596.68
515.455	6200.09
514.216	4735.95
512.977	4142.29
511.736	3739.69
510.497	3548.11
509.257	3390.74
508.016	3225.41
506.774	3204.63
505.534	3079.54
504.292	3016.68
503.051	3012.01
501.809	3039.41
500.566	2994.64
499.324	3074.14
498.081	3041.41
496.838	2980.65
495.595	3036.06
494.352	2963.31
493.107	2890.59
491.863	3004.03
490.619	2959.35
489.374	2960.7
488.129	2928.05
486.884	2959.39
485.639	2970.74
484.393	2936.1
483.146	2979.42
481.9	2964.77
480.653	2904.2
479.406	2919.53
478.159	2980.78
476.912	2980.12
475.664	2869.7
474.416	2994.77
473.168	2984.13
471.919	2951.56
470.67	2946.92
469.421	2920.36
468.172	3019.36
466.922	2931.02
465.672	2874.6
464.422	3031.3
463.172	2881.29
461.921	2912.51
460.67	2975.55
459.418	2947.04
458.167	2996.12
456.915	2961.65
455.663	3016.67
454.41	3069.68
453.157	2987.51
451.904	2968.96
450.651	3002.08
449.397	2965.66
448.145	2990.82
446.89	2914.71
445.636	2961.71
444.381	2937.24
443.126	2926.67
441.871	3056.95
440.615	3014.62
439.359	3033.78
438.104	3106.46
436.848	3070.1
435.591	3069.42
434.334	3149.96
433.076	3093.81
431.819	3180.25
430.562	3159.75
429.304	3170.92
428.045	3205.84
426.787	3165.56
425.528	3226.18
424.269	3223.49
423.01	3121.94
421.75	3216.13
420.49	3300.4
419.229	3167.28
417.969	3162.63
416.708	3215.25
415.447	3186.9
414.186	3207.9
412.924	3209.17
411.662	3165.04
410.4	3278.76
409.138	3234.64
407.875	3257.59
406.612	3310.09
405.349	3295.56
404.085	3355.92
402.821	3292.13
401.557	3287.46
400.293	3282.79