File: Finalized Code/CNN Models/RAMAN Data MITACs/HONGYAN/Triclosan Powder/Powder(1).txt
#Wave	#Intensity
1679.01	2.881422
1678.02	28.3167
1677.03	-6.456489
1676.04	27.099
1675.05	25.6798
1674.06	32.1084
1673.08	16.1524
1672.08	-14.6344
1671.1	-30.0496
1670.11	-7.483592
1669.12	-17.3837
1668.125	-37.1087
1667.13	-3.813816
1666.14	29.67791
1665.15	-77.3662
1664.16	-30.9187
1663.17	-4.398884
1662.18	-48.02758
1661.19	-26.1903
1660.2	20.9041
1659.2	-24.7234
1658.21	-9.961293
1657.22	25.00742
1656.23	17.4579
1655.23	27.5983
1654.24	15.2914
1653.25	18.15064
1652.25	-8.949942
1651.26	1.650192
1650.26	17.3593
1649.27	20.6379
1648.28	44.0403
1647.28	44.9896
1646.29	13.4868
1645.29	32.1234
1644.3	65.8394
1643.3	32.0765
1642.31	35.90913
1641.31	-0.200721
1640.31	26.2593
1639.32	10.2791
1638.32	-0.643554
1637.32	5.977687
1636.33	-39.8072
1635.33	-38.082
1634.33	-48.7985
1633.33	-14.5404
1632.34	32.218
1631.34	-35.78
1630.34	-3.936061
1629.34	10.4671
1628.34	-24.9772
1627.34	-15.507
1626.35	-8.508595
1625.35	10.9692
1624.35	27.9685
1623.35	189.45
1622.35	179.048
1621.35	235.892
1620.35	205.602
1619.35	202.715
1618.35	167.494
1617.35	224.346
1616.34	343.364
1615.34	280.814
1614.34	444.539
1613.34	416.809
1612.34	498.442
1611.33	572.593
1610.33	683.98
1609.33	698.466
1608.33	715.433
1607.32	779.563
1606.32	866.008
1605.32	860.605
1604.31	942.04
1603.31	1068.09
1602.31	1345.36
1601.3	1736.57
1600.3	2487.06
1599.29	3274.4
1598.29	3813.63
1597.28	3626.79
1596.28	2801
1595.27	2002.81
1594.27	1445.1
1593.26	1073.26
1592.25	889.661
1591.25	780.363
1590.24	703.27
1589.23	712.77
1588.23	863.207
1587.22	1055.61
1586.21	1411.05
1585.21	1968.98
1584.2	3018.31
1583.19	4215.4
1582.18	4878.58
1581.17	4788.44
1580.16	4118.24
1579.15	3460.66
1578.15	2976.09
1577.14	2580.53
1576.13	2266.53
1575.12	1908.28
1574.11	1414.59
1573.1	1093.65
1572.09	777.776
1571.08	585.232
1570.06	488.841
1569.05	486.081
1568.04	439.007
1567.03	364.88
1566.02	364.625
1565.01	307.781
1564	228.825
1562.98	243.377
1561.97	201.369
1560.96	142.175
1559.94	129.718
1558.93	97.6133
1557.92	122.043
1556.9	33.4688
1555.89	67.74263
1554.88	45.5338
1553.86	18.4335
1552.85	8.535299
1551.83	6.012757
1550.82	-23.4869
1549.8	3.453464
1548.79	27.9402
1547.77	-23.5818
1546.76	3.372884
1545.74	64.6392
1544.72	3.373154
1543.71	-11.309
1542.69	54.8539
1541.67	45.0875
1540.66	50.0267
1539.64	72.1099
1538.62	47.6981
1537.61	13.5216
1536.59	20.95763
1535.57	-3.391573
1534.55	18.7405
1533.53	-10.4624
1532.51	28.7956
1531.49	-19.92086
1530.48	77.9824
1529.46	4.875266
1528.44	27.0528
1527.42	59.0002
1526.4	12.8328
1525.38	17.949
1524.36	27.9558
1523.33	8.696826
1522.31	-20.297
1521.29	-7.812507
1520.27	-48.9554
1519.25	-36.445
1518.23	7.752436
1517.21	-57.69455
1516.18	-20.7943
1515.16	-32.6052
1514.14	9.167655
1513.12	9.550708
1512.09	63.4899
1511.07	59.0181
1510.05	139.707
1509.02	271.452
1508	390.993
1506.97	508.062
1505.95	520.571
1504.92	518.504
1503.9	462.994
1502.875	397.802
1501.85	206.355
1500.82	228.677
1499.8	127.189
1498.77	108.276
1497.75	135.486
1496.72	87.4828
1495.69	63.7644
1494.67	64.3153
1493.64	113.364
1492.61	12.1094
1491.59	73.281
1490.56	151.395
1489.53	79.2867
1488.5	43.5454
1487.47	75.6262
1486.45	78.6473
1485.42	81.6728
1484.39	29.0428
1483.36	10.312
1482.33	52.0656
1481.3	113.152
1480.27	46.0697
1479.24	102.304
1478.21	216.521
1477.18	163.965
1476.15	179.076
1475.12	143.461
1474.09	132.011
1473.05	154.366
1472.02	193.608
1470.99	191.808
1469.96	76.6111
1468.93	111.019
1467.89	34.4736
1466.86	30.29516
1465.83	-22.0977
1464.8	-28.6769
1463.76	-32.8465
1462.73	13.575
1461.7	-33.9638
1460.66	-35.7315
1459.63	-13.4269
1458.59	-15.2074
1457.56	-33.8376
1456.52	5.279829
1455.49	22.7248
1454.45	-10.3496
1453.42	-19.3714
1452.38	14.8761
1451.34	-8.582212
1450.31	-24.8294
1449.27	14.1786
1448.24	-42.916
1447.2	17.67454
1446.16	32.6128
1445.12	61.938
1444.09	0.043958
1443.05	10.1479
1442.01	-22.943
1440.97	15.9197
1439.93	4.399515
1438.9	-11.9218
1437.86	43.6561
1436.82	-20.6176
1435.78	-13.00292
1434.74	4.176338
1433.7	4.571741
1432.66	4.953019
1431.62	-11.4362
1430.58	-18.2597
1429.54	-20.3101
1428.5	18.2931
1427.46	30.5557
1426.41	33.233
1425.37	4.814091
1424.33	67.2172
1423.29	77.0049
1422.25	101.106
1421.2	122.792
1420.16	115.794
1419.12	137.4319
1418.08	99.3661
1417.03	166.308
1415.99	87.6527
1414.95	23.3265
1413.9	49.6403
1412.86	73.5393
1411.81	28.2729
1410.77	-12.2263
1409.72	44.9746
1408.68	75.9241
1407.63	83.0209
1406.59	25.7956
1405.54	85.2406
1404.5	30.3795
1403.45	49.2987
1402.4	56.2922
1401.36	39.4732
1400.31	53.55954
1399.26	60.48531
1398.21	48.3682
1397.17	21.97415
1396.12	102.505
1395.07	95.0749
1394.02	187.389
1392.97	210.774
1391.92	217.506
1390.88	129.264
1389.83	171.567
1388.78	88.075
1387.73	42.55294
1386.68	61.0656
1385.63	-12.9286
1384.58	-13.421
1383.53	-21.0448
1382.48	2.118598
1381.42	20.5118
1380.37	38.87611
1379.32	40.6337
1378.27	56.575
1377.22	1.474584
1376.17	52.87429
1375.11	61.6404
1374.06	8.876449
1373.01	-15.5047
1371.96	54.6866
1370.9	-33.5653
1369.85	-13.076
1368.8	5.020296
1367.74	11.2752
1366.69	-15.56006
1365.63	11.91
1364.58	53.5143
1363.52	31.348
1362.47	13.8911
1361.41	-8.295732
1360.36	-30.4929
1359.3	25.129
1358.25	52.4121
1357.19	63.1639
1356.13	29.1108
1355.08	35.113
1354.02	29.3154
1352.96	35.2786
1351.9	34.1572
1350.85	101.295
1349.79	24.80348
1348.73	40.1079
1347.67	13.0377
1346.61	54.18
1345.56	57.6599
1344.5	4.691138
1343.44	-5.954928
1342.38	13.94105
1341.32	33.8138
1340.26	46.6148
1339.2	82.8846
1338.14	6.409485
1337.08	75.5121
1336.02	-7.996102
1334.96	-11.6945
1333.89	-31.8268
1332.83	20.7531
1331.77	35.7762
1330.71	-3.145415
1329.65	37.6383
1328.58	5.741398
1327.52	-12.0932
1326.46	26.2914
1325.4	8.440785
1324.33	-30.4866
1323.27	-41.3129
1322.2	-42.7819
1321.14	-51.2771
1320.08	-38.7216
1319.01	-54.247
1317.95	-39.3731
1316.88	-54.9048
1315.82	-0.312175
1314.75	-15.8586
1313.69	-50.09523
1312.62	-2.564203
1311.55	16.9162
1310.49	31.7142
1309.42	34.83
1308.35	28.6055
1307.29	-14.955
1306.22	-18.8395
1305.15	-8.72977
1304.08	15.364
1303.02	46.4415
1301.95	77.5035
1300.88	68.9355
1299.81	69.6894
1298.74	33.1755
1297.67	73.5285
1296.6	39.3591
1295.53	82.0227
1294.46	122.344
1293.39	118.44
1292.32	144.782
1291.25	119.948
1290.18	232.32
1289.11	270.254
1288.04	515.033
1286.97	857.306
1285.89	1057.72
1284.82	1160.49
1283.75	1258.58
1282.68	1319.49
1281.61	1517.33
1280.53	1805.59
1279.46	2100.7
1278.39	2291.3
1277.31	2300.93
1276.24	2282.74
1275.16	2498.7
1274.09	2995
1273.01	4232.56
1271.94	5812.45
1270.87	6942.33
1269.79	6656.92
1268.71	5181.7
1267.64	3656.22
1266.56	2550.26
1265.49	1877.43
1264.41	1563.43
1263.33	1344.4
1262.26	1236.45
1261.18	1006.05
1260.1	967.583
1259.02	993.839
1257.95	1010.86
1256.87	845.436
1255.79	684.722
1254.71	621.048
1253.63	665.891
1252.55	653.046
1251.47	690.974
1250.39	740.436
1249.31	766.833
1248.23	650.302
1247.15	434.732
1246.07	302.231
1244.99	185.934
1243.91	161.842
1242.83	179.229
1241.75	212.745
1240.67	223.247
1239.58	291.296
1238.5	352.432
1237.42	399.759
1236.34	545.977
1235.25	855.398
1234.17	1155.51
1233.09	1565.82
1232	1750.79
1230.92	1811.65
1229.83	1573.94
1228.75	1320.27
1227.67	1142.5
1226.58	907.452
1225.5	1051.15
1224.41	1070.92
1223.33	1237.5
1222.24	1426.96
1221.15	1380.21
1220.07	1267.04
1218.98	979.773
1217.89	720.152
1216.81	607.268
1215.72	389.112
1214.63	287.845
1213.54	259.897
1212.46	135.865
1211.37	75.9767
1210.28	32.15144
1209.19	52.406
1208.1	40.6635
1207.01	10.6612
1205.92	26.40612
1204.83	26.1723
1203.74	-58.5645
1202.65	-33.6086
1201.56	-36.0423
1200.47	-15.6218
1199.38	-4.317024
1198.29	-6.685746
1197.2	11.5029
1196.11	43.3922
1195.01	47.9252
1193.92	63.8789
1192.83	34.2603
1191.74	13.7934
1190.64	79.93721
1189.55	116.462
1188.46	162.102
1187.36	291.989
1186.27	380.865
1185.18	665.447
1184.08	799.751
1182.99	1013.64
1181.89	924.963
1180.8	797.696
1179.7	706.881
1178.61	554.762
1177.51	466.356
1176.42	289.411
1175.32	291.997
1174.22	174.252
1173.125	256.363
1172.03	259.015
1170.93	202.687
1169.83	223.541
1168.74	189.967
1167.64	31.7039
1166.54	43.5712
1165.44	55.4521
1164.34	-5.171698
1163.24	-38.5619
1162.14	-3.963452
1161.04	21.5786
1159.94	-29.8542
1158.84	-11.0739
1157.74	9.978662
1156.64	-27.7897
1155.54	22.69779
1154.44	141.027
1153.34	279.669
1152.24	377.5737
1151.14	760.219
1150.04	1346.07
1148.93	2424.15
1147.83	4195.13
1146.73	5380.49
1145.625	4838.32
1144.52	3323.63
1143.42	1940.51
1142.31	1331.84
1141.21	980.576
1140.11	760.278
1139	501.764
1137.9	410.173
1136.79	255.536
1135.69	152.799
1134.58	79.3995
1133.48	64.59375
1132.37	88.07943
1131.26	10.2718
1130.16	72.0339
1129.05	32.5304
1127.94	24.5442
1126.84	57.0503
1125.73	10.8553
1124.62	83.8265
1123.51	84.8542
1122.41	99.3696
1121.3	152.072
1120.19	231.706
1119.08	228.232
1117.97	271.906
1116.86	335.763
1115.75	466.908
1114.64	752.787
1113.53	1126.01
1112.42	1662.75
1111.31	2015.42
1110.2	1935.37
1109.09	1689.55
1107.98	1486.4
1106.86	1249.74
1105.75	1353.56
1104.64	2072.98
1103.53	2671.21
1102.41	2716.46
1101.3	2137.5
1100.19	1393.28
1099.08	998.251
1097.96	641.403
1096.85	436.706
1095.73	343.831
1094.62	313.552
1093.5	345.825
1092.39	411.577
1091.27	423.71
1090.16	563.065
1089.04	825.0896
1087.93	1247.63
1086.81	2104.94
1085.69	3546.14
1084.58	4937.62
1083.46	5053.43
1082.34	3910.03
1081.22	2608.96
1080.11	1651.51
1078.99	1157.72
1077.87	806.638
1076.75	727.288
1075.63	681.345
1074.51	541.964
1073.39	420.433
1072.27	405.699
1071.15	368.726
1070.03	293.967
1068.91	288.129
1067.79	308.944
1066.67	243.102
1065.55	246.128
1064.43	260.242
1063.31	261.016
1062.19	321.703
1061.06	484.418
1059.94	784.588
1058.82	1510.45
1057.7	2189.39
1056.57	2056.63
1055.45	1400.84
1054.33	805.173
1053.2	577.513
1052.08	425.246
1050.95	270.82
1049.83	238.21
1048.7	176.827
1047.58	146.435
1046.45	93.9179
1045.33	118.822
1044.2	121.585
1043.08	66.8493
1041.95	78.4309
1040.82	54.6334
1039.69	30.8295
1038.57	4.810318
1037.44	33.9928
1036.31	-20.7509
1035.18	23.8393
1034.06	2.188626
1032.93	51.1301
1031.8	14.0071
1030.67	-7.680327
1029.54	-9.533237
1028.41	26.0679
1027.28	-11.0881
1026.15	6.834419
1025.02	9.311593
1023.89	-1.444421
1022.76	7.601229
1021.63	-9.789775
1020.5	8.01882
1019.36	32.4012
1018.23	-4.836477
1017.1	-0.292266
1015.97	4.231259
1014.83	19.7245
1013.7	-21.9463
1012.57	28.6622
1011.43	13.3304
1010.3	4.575335
1009.17	-8.585564
1008.03	-32.7343
1006.9	8.946902
1005.76	-13.0378
1004.63	-39.4179
1003.49	-57.032
1002.36	-19.8423
1001.22	-13.37667
1000.08	-13.5068
998.947	30.1659
997.811	1.512932
996.673	-7.43445
995.536	-25.1533
994.398	-34.1256
993.261	-3.718176
992.123	-3.974006
990.984	-19.5595
989.846	-15.4719
988.707	25.7671
987.568	5.763144
986.429	5.420869
985.289	2.877451
984.149	19.9791
983.009	-2.254475
981.868	-24.4935
980.728	-13.9939
979.587	20.4921
978.446	17.8543
977.305	-28.426
976.163	12.5368
975.021	-27.2093
973.878	-10.27399
972.736	6.639668
971.593	-67.9823
970.45	20.7954
969.307	15.8695
968.163	-32.6146
967.02	1.631486
965.875	-7.678543
964.73	-6.117508
963.586	-32.8489
962.441	-20.4327
961.296	-8.034485
960.15	-15.2179
959.005	-26.7558
957.859	20.3667
956.713	-17.2638
955.566	10.2668
954.419	3.033299
953.272	15.331
952.125	1.569375
950.978	0.823641
949.829	10.915
948.682	10.1498
947.533	20.2172
946.385	15.0975
945.235	18.64068
944.086	13.50771
942.937	23.5335
941.787	24.8847
940.637	28.3932
939.487	73.0239
938.336	61.3568
937.186	51.8536
936.034	87.776
934.883	110.7
933.731	27.6609
932.58	37.6084
931.428	32.4179
930.275	48.8325
929.122	-16.8518
927.97	16.8365
926.816	-18.5883
925.663	23.7122
924.509	-13.8622
923.354	41.3573
922.2	-0.522828
921.046	5.060722
919.892	-36.7951
918.736	24.8369
917.581	28.2502
916.425	66.1343
915.27	99.6923
914.113	152.616
912.956	145.227
911.8	155.062
910.643	147.676
909.485	101.5653
908.328	100.649
907.17	69.6259
906.012	23.5675
904.854	29.1217
903.695	-25.49925
902.536	-30.6766
901.377	22.148
900.218	-68.9365
899.058	-35.4477
897.897	-49.1963
896.737	-41.4756
895.577	11.3005
894.416	19.0083
893.255	31.0044
892.094	79.4464
890.932	127.868
889.77	182.7
888.607	220.369
887.445	206.615
886.282	130.768
885.119	108.485
883.956	69.0918
882.793	59.6814
881.629	73.8133
880.465	25.9119
879.301	-0.577981
878.136	11.4318
876.971	-6.484537
875.806	24.7621
874.641	45.316
873.475	10.3288
872.309	47.968
871.143	100.538
869.976	136.0121
868.809	233.358
867.642	200.522
866.475	376.733
865.307	572.057
864.139	1151.04
862.971	1787.3
861.802	2197.39
860.633	1987.34
859.464	1453.64
858.295	1041.57
857.125	676.533
855.955	394.683
854.785	266.178
853.614	129.228
852.443	41.2638
851.272	85.1811
850.102	31.2892
848.93	-35.32732
847.758	10.70931
846.586	35.4826
845.414	0.777554
844.241	10.6814
843.068	-2.769311
841.895	11.3783
840.722	72.2022
839.548	46.02177
838.374	113.173
837.199	67.9129
836.024	94.7502
834.85	110.978
833.675	135.674
832.499	139.173
831.323	146.906
830.147	76.2924
828.971	166.591
827.795	220.868
826.618	372.446
825.44	507.027
824.264	688.069
823.086	1152.34
821.907	2168.1
820.729	3098.85
819.551	2755.11
818.372	1663.76
817.193	832.679
816.014	413.699
814.834	248.212
813.654	188.315
812.474	208.614
811.294	258.428
810.112	217.533
808.932	199.842
807.75	161.074
806.568	166.572
805.387	222.622
804.205	343.934
803.022	383.053
801.84	537.937
800.656	835.865
799.474	1375.64
798.29	2316.97
797.105	3951.94
795.922	6015.09
794.737	6775.92
793.553	5478.7
792.367	3711.41
791.183	2119.31
789.997	1334.47
788.811	951.06
787.625	664.386
786.438	489.072
785.252	374.68
784.064	275.013
782.878	160.7005
781.69	126.107
780.502	76.841
779.314	61.1186
778.126	9.768894
776.9375	17.0839
775.748	-30.0714
774.559	-26.96768
773.369	-48.9996
772.18	50.3464
770.989	-17.75448
769.799	-6.349652
768.608	-1.239342
767.418	-8.691442
766.227	-9.885295
765.035	-13.1837
763.843	48.2715
762.651	32.39711
761.459	41.5737
760.266	42.3783
759.073	84.9141
757.88	56.4621
756.687	211.603
755.492	306.165
754.299	577.919
753.104	949.597
751.909	1623.31
750.715	2117.47
749.52	1807.23
748.324	1247.18
747.128	739.447
745.932	396.405
744.735	215.856
743.539	149.826
742.342	127.499
741.145	96.8525
739.947	97.3983
738.75	72.9866
737.552	61.0445
736.354	71.9538
735.154	-6.478036
733.955	29.3437
732.756	-13.7609
731.557	28.256
730.357	18.3619
729.157	-3.984538
727.956	-7.65861
726.756	-21.7044
725.555	49.2576
724.354	35.195
723.152	93.668
721.95	179.043
720.748	208.45
719.546	266.834
718.343	350.033
717.14	443.543
715.937	491.484
714.733	678.019
713.529	754.844
712.325	858.52
711.121	1057.25
709.916	1361.3
708.711	1762.34
707.506	2648.67
706.3	4965.9
705.095	10581.7
703.888	20146.1
702.682	24426.4
701.475	18517.7
700.268	10588.2
699.061	5754.03
697.853	3615.07
696.646	2639.79
695.437	1708.28
694.229	1222.3
693.02	802.494
691.811	527.077
690.602	420.654
689.392	308.137
688.182	280.082
686.972	206.81
685.761	174.747
684.55	163.301
683.339	137.508
682.127	130.265
680.916	199.102
679.704	144.681
678.491	156.057
677.279	140.779
676.066	193.305
674.853	231.487
673.64	275.859
672.426	346.931
671.212	420.074
669.997	612.167
668.782	720.174
667.567	717.514
666.353	581.729
665.137	552.594
663.921	480.529
662.705	494.559
661.488	394.014
660.272	369.307
659.055	332.404
657.838	340.592
656.62	314.08
655.402	396.015
654.185	488.204
652.966	1154.67
651.747	2893.52
650.528	5875.54
649.309	7375.67
648.089	5443.2
646.869	2566.7
645.648	1187.45
644.429	706.609
643.208	538.139
641.986	322.931
640.765	177.219
639.543	76.4955
638.321	67.594
637.099	50.6271
635.877	52.0744
634.653	8.803849
633.431	-14.0146
632.207	-4.18292
630.983	-8.525825
629.759	-4.656415
628.535	-43.4287
627.311	-59.7468
626.085	25.648
624.86	5.386481
623.635	-12.7704
622.408	1.642136
621.183	28.2859
619.956	18.4258
618.729	-27.9173
617.502	0.892817
616.275	-6.791201
615.048	22.0763
613.819	59.0745
612.591	35.2607
611.362	33.7742
610.134	52.5665
608.905	0.453036
607.676	82.0433
606.445	90.6952
605.216	18.3524
603.985	95.7948
602.755	74.0237
601.524	106.844
600.293	80.9537
599.062	125.787
597.829	113.932
596.598	85.8364
595.365	92.0147
594.132	104.151
592.899	221.179
591.666	374.367
590.433	547.526
589.198	595.33
587.965	461.363
586.729	301.055
585.495	235.401
584.26	232.058
583.024	190.184
581.789	180.317
580.553	190.3255
579.316	181.907
578.08	209.422
576.843	194.31
575.606	174.819
574.368	108.672
573.131	66.2895
571.893	101.927
570.654	52.6363
569.416	16.95248
568.177	26.9888
566.9375	30.445
565.698	21.2691
564.458	-20.64889
563.218	-37.0894
561.978	-10.0396
560.736	-15.831
559.495	-66.5086
558.254	2.398203
557.013	-17.7901
555.771	-20.8022
554.528	-48.7762
553.285	2.452612
552.042	2.571386
550.799	-10.3745
549.556	119.764