File: Finalized Code/RAMAN Data MITACs/Bulk Carbon Ring Identification/Copy of PSnoBL.txt
#Wave		#Intensity
1724.09	2.972211
1723.11	143.669
1722.13	1.557714
1721.15	48.4734
1720.17	40.2264
1719.19	55.5103
1718.21	-17.4915
1717.23	11.639
1716.25	64.0737
1715.27	243.796
1714.29	215.656
1713.31	-78.6998
1712.33	-139.294
1711.35	-70.3351
1710.37	186.378
1709.38	4.340511
1708.4	48.0409
1707.42	30.8325
1706.44	-42.2196
1705.45	-77.3242
1704.47	-41.6621
1703.49	-66.9491
1702.5	-8.906109
1701.52	26.0653
1700.54	70.9092
1699.55	198.924
1698.57	212.734
1697.58	135.156
1696.6	-18.5993
1695.62	-3.252700
1694.63	54.6588
1693.64	59.0901
1692.66	237.469
1691.67	377.45
1690.69	155.826
1689.7	302.519
1688.71	259.39
1687.73	344.588
1686.74	434.379
1685.75	215.874
1684.77	357.759
1683.78	209.147
1682.79	183.737
1681.81	67.1822
1680.82	146.835
1679.83	248.742
1678.84	239.376
1677.85	506.709
1676.86	171.666
1675.87	206.521
1674.88	59.7817
1673.9	116.631
1672.91	163.078
1671.92	70.8086
1670.93	41.2076
1669.94	-69.1539
1668.95	-1.263695
1667.96	-46.7105
1666.96	226.755
1665.97	85.3789
1664.98	-93.8427
1663.99	211.511
1663	-28.2451
1662.01	-57.2
1661.01	29.1972
1660.02	117.973
1659.03	229.215
1658.04	212.39
1657.04	351.057
1656.05	582.376
1655.06	856.175
1654.06	1342.95
1653.07	1441.14
1652.08	1732.28
1651.08	1827.99
1650.09	2279.3
1649.09	2187.3
1648.1	2398.31
1647.1	2516.8
1646.11	2342.69
1645.11	1971.23
1644.12	1797.71
1643.12	1561.96
1642.13	1319.06
1641.13	1423.96
1640.13	1049.28
1639.14	1032.37
1638.14	948.315
1637.14	889.617
1636.15	701.476
1635.15	750.903
1634.15	685.939
1633.15	741.153
1632.15	861.636
1631.16	815.374
1630.16	896.802
1629.16	791.658
1628.16	1008.59
1627.16	1036.55
1626.16	1466.15
1625.16	1412.82
1624.16	1673.87
1623.16	2184.36
1622.16	2259.56
1621.16	2556.83
1620.16	2874.46
1619.16	3192.55
1618.16	3575.81
1617.16	4141.08
1616.16	4843.47
1615.15	5451.78
1614.15	6520.25
1613.15	7795.15
1612.15	9773.26
1611.14	11795.9
1610.14	14630.4
1609.14	19222.1
1608.14	24629.2
1607.13	31082.1
1606.13	38986.8
1605.12	46650.8
1604.12	52725.1
1603.12	56541.1
1602.11	56917.9
1601.11	53123.9
1600.1	45610.3
1599.1	37020.4
1598.09	29876.5
1597.09	23570.9
1596.08	18667.5
1595.08	15423
1594.07	12781.9
1593.06	11238.9
1592.06	9778.9
1591.05	8926.2
1590.04	8584
1589.04	9038.75
1588.03	10658.2
1587.02	13908.8
1586.01	18730
1585	23273.3
1584	26696.7
1582.99	26474.9
1581.98	22526.3
1580.97	17568.1
1579.96	12696.7
1578.95	9150.31
1577.94	7086.04
1576.93	5684.23
1575.92	4784.18
1574.91	4087.31
1573.9	3423.43
1572.89	2600.33
1571.88	2068.91
1570.87	1848.69
1569.86	1587.32
1568.85	1447.31
1567.84	1152.91
1566.82	1105.32
1565.81	876.268
1564.8	891.421
1563.79	506.273
1562.77	384.93
1561.76	278.93
1560.75	333.258
1559.74	272.606
1558.72	183.007
1557.71	295.346
1556.69	307.437
1555.68	288.089
1554.67	320.753
1553.65	101.074
1552.64	139.54
1551.62	-44.8222
1550.61	-110.969
1549.59	-149.731
1548.57	-23.8539
1547.56	229.777
1546.54	123.444
1545.53	83.632
1544.51	262.128
1543.49	41.7134
1542.48	76.2854
1541.46	160.085
1540.44	297.943
1539.42	64.0603
1538.41	38.431
1537.39	118.186
1536.37	359.501
1535.35	444.423
1534.33	275.264
1533.31	145.436
1532.29	123.265
1531.27	303.975
1530.25	330.843
1529.24	201.509
1528.21	33.2507
1527.19	372.753
1526.17	365.643
1525.15	390.261
1524.13	490.47
1523.11	615.022
1522.09	427.414
1521.07	537.204
1520.05	373.934
1519.03	551.751
1518	597.867
1516.98	573.215
1515.96	687.227
1514.93	586.832
1513.91	700.473
1512.89	989.104
1511.87	511.064
1510.84	548.667
1509.82	780.588
1508.79	876.012
1507.77	825.286
1506.74	822.91
1505.72	839.682
1504.69	792.998
1503.67	981.598
1502.64	1116.36
1501.62	1039.51
1500.59	1073.97
1499.57	1265.79
1498.54	1461.99
1497.51	1706.21
1496.49	2282.16
1495.46	2515.55
1494.43	2741.13
1493.41	2680.18
1492.38	2347.42
1491.35	1747.82
1490.32	1596.06
1489.29	1521.34
1488.26	1358.98
1487.24	1278.45
1486.21	1553.14
1485.18	1381.99
1484.15	1415.95
1483.12	1272.77
1482.09	1358.77
1481.06	1417.54
1480.03	1536.1
1479	1417.18
1477.97	1602.08
1476.94	1723.46
1475.91	1846.56
1474.87	2123.46
1473.84	1706.83
1472.81	1733.73
1471.78	1882.99
1470.75	2137.64
1469.71	2140.65
1468.68	2003.12
1467.65	2260.27
1466.62	2600.95
1465.58	2755.22
1464.55	3099
1463.51	3350.37
1462.48	4010.26
1461.45	4447.62
1460.41	4987.54
1459.38	6070.34
1458.34	7394.92
1457.31	8862.49
1456.27	10485
1455.24	11940.1
1454.2	13187.1
1453.16	13913.6
1452.13	14122.3
1451.09	14277.4
1450.05	14234.6
1449.02	14412
1447.98	13959.4
1446.94	13542.3
1445.91	12591.8
1444.87	11859.2
1443.83	11140.6
1442.79	10256
1441.75	9505.17
1440.71	8499.82
1439.68	7870.38
1438.64	6988.81
1437.6	6408.66
1436.56	5590.87
1435.52	4648.1
1434.48	4238.85
1433.44	3568.08
1432.4	3026.06
1431.36	2540.89
1430.32	2191.5
1429.27	1714.74
1428.23	1414.34
1427.19	1347.6
1426.15	1253.83
1425.11	1223.86
1424.07	1183.6
1423.02	865.523
1421.98	881.168
1420.94	771.931
1419.89	805.239
1418.85	665.994
1417.81	499.823
1416.76	659.827
1415.72	482.797
1414.67	615.132
1413.63	517.843
1412.58	565.313
1411.54	662.144
1410.5	493.843
1409.45	396.428
1408.4	655.578
1407.36	618.777
1406.31	474.266
1405.27	483.856
1404.22	500.03
1403.17	601.206
1402.13	437.784
1401.08	357.049
1400.03	149.852
1398.98	160.815
1397.94	176
1396.89	138.352
1395.84	57.5127
1394.79	180.388
1393.74	53.4498
1392.69	-81.0198
1391.64	-182.71
1390.59	54.5302
1389.54	139.381
1388.49	64.8878
1387.44	366.969
1386.39	552.428
1385.34	893.803
1384.29	1170.7
1383.24	1657.91
1382.19	1732.52
1381.14	1955.92
1380.09	2247.56
1379.03	2415.72
1377.98	2512.49
1376.93	2545.13
1375.88	2714.65
1374.82	2756.12
1373.77	2783.23
1372.72	2784.07
1371.66	2647.71
1370.61	2804.13
1369.56	2669.82
1368.5	2528.3
1367.45	2667.76
1366.39	2717.3
1365.34	2665.19
1364.28	2454.99
1363.23	2369.8
1362.17	2213.86
1361.12	2201.81
1360.06	1920.94
1359	2215.34
1357.95	1984.17
1356.89	1889.7
1355.83	1536.26
1354.77	1491.52
1353.72	1496.34
1352.66	1668.41
1351.6	1588.7
1350.54	1582.06
1349.48	1780.26
1348.43	1825.66
1347.37	1723.1
1346.31	1874.7
1345.25	2108.68
1344.19	2164.2
1343.13	2433.71
1342.07	2654.1
1341.01	3034.33
1339.95	3468.71
1338.89	3764.73
1337.83	4121.98
1336.77	4657.71
1335.7	5097.41
1334.64	5410.65
1333.58	5881.22
1332.52	5833.96
1331.46	6138.69
1330.39	6328.92
1329.33	6334.46
1328.27	6272.51
1327.2	6337.55
1326.14	5885.66
1325.08	6115.66
1324.01	5646.34
1322.95	5540.44
1321.88	5231.66
1320.82	4605.56
1319.75	4588.25
1318.69	3772.07
1317.62	3538.83
1316.56	3247.93
1315.49	3055.9
1314.43	2850.67
1313.36	2655.53
1312.29	2454.14
1311.23	2353.97
1310.16	2277.87
1309.09	2048.59
1308.02	2163.04
1306.96	1954.08
1305.89	1706.33
1304.82	1676.28
1303.75	1873.11
1302.68	1781.77
1301.61	1388.45
1300.55	1475.94
1299.48	1389.6
1298.41	1273.89
1297.34	1214.99
1296.27	1026.69
1295.2	804.483
1294.13	906.589
1293.05	523.561
1291.98	608.934
1290.91	732.409
1289.84	575.608
1288.77	152.67
1287.7	297.634
1286.62	355.277
1285.55	327.986
1284.48	-2.384899
1283.41	218.434
1282.33	-47.0848
1281.26	62.0175
1280.19	19.0302
1279.11	-43.7606
1278.04	-5.777923
1276.96	37.8599
1275.89	147.437
1274.81	255.711
1273.74	235.32
1272.66	435.991
1271.59	380.697
1270.51	638.985
1269.44	659.911
1268.36	772.158
1267.28	594.023
1266.21	1004.46
1265.13	743.039
1264.05	824.958
1262.98	988.85
1261.9	878.848
1260.82	735.379
1259.74	988.024
1258.66	830.698
1257.58	1242.46
1256.51	819.716
1255.43	1111.29
1254.35	1147.8
1253.27	1256.95
1252.19	975.188
1251.11	856.077
1250.03	1072.38
1248.95	1305.84
1247.87	1229.35
1246.79	1225.43
1245.7	1478.26
1244.62	1333.84
1243.54	1515.15
1242.46	1437.49
1241.38	1250.59
1240.29	1361.6
1239.21	1225.35
1238.13	1428.26
1237.04	1400.04
1235.96	1356.88
1234.88	1712.32
1233.79	1719.57
1232.71	1969.07
1231.62	2405.57
1230.54	2572.09
1229.46	2767.16
1228.37	3153.67
1227.29	3625.97
1226.2	3862.92
1225.11	3926.56
1224.03	4364.91
1222.94	4657.42
1221.85	4602.57
1220.77	4803.07
1219.68	4867.08
1218.59	5016.86
1217.51	5721.58
1216.42	6285.11
1215.33	6888.33
1214.24	7965.82
1213.15	9402.97
1212.06	11204.1
1210.97	12609.7
1209.89	14749.5
1208.8	16729.3
1207.71	19019.9
1206.62	20785
1205.53	23196.5
1204.44	25196.8
1203.34	27224.5
1202.25	28779.8
1201.16	30294.2
1200.07	30825.4
1198.98	32198.9
1197.89	32400.5
1196.79	33323.3
1195.7	33195.7
1194.61	32348.9
1193.52	31223
1192.42	29936.6
1191.33	28644.8
1190.24	27119.8
1189.14	26178.8
1188.05	25539.3
1186.95	26084
1185.86	27670.8
1184.76	29682.8
1183.67	31519.6
1182.57	33183.4
1181.48	32640.2
1180.38	30332.6
1179.29	26150.3
1178.19	21330
1177.09	16419.3
1176	12832.5
1174.9	10214.7
1173.8	8721.66
1172.7	7399.96
1171.61	6948
1170.51	6079.4
1169.41	6011.91
1168.31	5799.8
1167.21	5882.73
1166.11	5895.83
1165.01	6405.22
1163.91	6903.45
1162.81	8017.62
1161.71	9950.84
1160.61	12345.2
1159.51	15546.3
1158.41	19381.8
1157.31	22689
1156.21	24916.5
1155.11	25215.1
1154.01	22774.9
1152.9	19396.1
1151.8	14598.2
1150.7	10371.7
1149.6	7508.64
1148.49	5181.89
1147.39	4221.63
1146.29	3155.81
1145.18	2947.73
1144.08	2340.49
1142.97	1695.26
1141.87	1438
1140.76	856.347
1139.66	612.778
1138.55	432.374
1137.45	184.377
1136.34	188.617
1135.24	55.3877
1134.13	66.0136
1133.02	69.8484
1131.92	-104.316
1130.81	-103.121
1129.7	5.761331
1128.59	116.583
1127.49	141.671
1126.38	224.949
1125.27	323.599
1124.16	581.34
1123.05	701.712
1121.94	1223.51
1120.83	1515.76
1119.72	1710.97
1118.61	1955.11
1117.5	2380.31
1116.39	2587.41
1115.28	2872.49
1114.17	2919.29
1113.06	3214.37
1111.95	3374.38
1110.84	3468.88
1109.73	3950.13
1108.61	4162
1107.5	4697.74
1106.39	5199.14
1105.28	5451.28
1104.16	5915.23
1103.05	6742.83
1101.93	7017.23
1100.82	7268.4
1099.71	7364.63
1098.59	7495.91
1097.48	7758.14
1096.36	7787.32
1095.25	7788.94
1094.13	7720.6
1093.02	7664.96
1091.9	7789.22
1090.78	7598.15
1089.67	7546.91
1088.55	7717.77
1087.43	7791.91
1086.32	7657.9
1085.2	7910.83
1084.08	8151.57
1082.96	8237.69
1081.84	8369.63
1080.73	8418.28
1079.61	8561.64
1078.49	8274.61
1077.37	8235.91
1076.25	8481
1075.13	8538.24
1074.01	8847.9
1072.89	8916.4
1071.77	9137.2
1070.65	9345.84
1069.53	9411.22
1068.4	9360.14
1067.28	9014.98
1066.16	8926.44
1065.04	8819.15
1063.92	8591.07
1062.79	8295.54
1061.67	8291.79
1060.55	8007.64
1059.42	8048.37
1058.3	8025.98
1057.18	7936.07
1056.05	7796.38
1054.93	7870.49
1053.8	8047.52
1052.68	8125.99
1051.55	8486.55
1050.43	8706.48
1049.3	9095.52
1048.18	9573.94
1047.05	9986.94
1045.92	11110.3
1044.8	12141.5
1043.67	13559.9
1042.54	15215.1
1041.41	17636.8
1040.29	21052
1039.16	25327.5
1038.03	31912.6
1036.9	39923.1
1035.77	50509.4
1034.64	61475.6
1033.51	71386.2
1032.38	76446.4
1031.25	75196.4
1030.12	69099
1028.99	59987.8
1027.86	49345
1026.73	39573.4
1025.6	31106.1
1024.47	24571.5
1023.34	20487.5
1022.21	16846.4
1021.07	14246.1
1019.94	12406.7
1018.81	11545.1
1017.67	10632.3
1016.54	10452.8
1015.41	10994.9
1014.27	11779.5
1013.14	13581.4
1012	16132.1
1010.87	19784.4
1009.73	26661.4
1008.6	37677.6
1007.46	56452.8
1006.33	88673.3
1005.19	139777
1004.06	207023
1002.92	270483
1001.78	297893
1000.65	263300
999.509	191941
998.371	124726
997.233	80961.9
996.095	55803.5
994.957	42450
993.818	34066
992.679	29749.4
991.54	28065.7
990.4	27072.5
989.261	25036.8
988.121	21474.5
986.98	17629.1
985.84	14173.4
984.699	12226.8
983.559	10705.9
982.417	9521.04
981.275	8671.9
980.134	7918.43
978.991	6937.86
977.85	6379.98
976.707	5736.72
975.563	5225.99
974.421	4627.81
973.277	4153.41
972.134	3865.89
970.989	3854.36
969.846	3837.97
968.701	3888.48
967.556	3951.47
966.411	3866.11
965.266	3854.21
964.12	3759.25
962.975	3394.45
961.828	3079.33
960.682	2624.95
959.535	2135.65
958.389	2071.75
957.241	1779.6
956.094	1628.3
954.946	1593.93
953.798	1353.18
952.649	1307.45
951.501	1259.32
950.353	1158.96
949.203	1086.57
948.054	1137.5
946.904	1212.07
945.755	1059.06
944.604	899.463
943.454	977.91
942.304	943.696
941.152	857.456
940.001	701.982
938.85	680.61
937.698	564.102
936.546	581.614
935.394	378.72
934.241	301.261
933.089	299.488
931.936	185.462
930.782	235.656
929.628	0.993713
928.475	-17.6035
927.32	-42.5542
926.166	62.085
925.011	110.758
923.856	-21.4421
922.701	335.866
921.545	31.6774
920.39	279.434
919.233	441.161
918.077	495.441
916.92	750.182
915.764	979.341
914.606	1230.22
913.449	1466.29
912.291	1928.42
911.133	2225.17
909.975	2457.7
908.816	2802.31
907.657	3001.06
906.498	3088.47
905.339	3051.75
904.18	2970.46
903.02	2604.16
901.859	2043.26
900.699	1766.4
899.538	1515.95
898.377	1141.79
897.216	924.915
896.055	698.029
894.893	341.101
893.73	237.806
892.568	135.202
891.405	245.299
890.242	9.144890
889.079	201.912
887.916	283.993
886.752	370.995
885.588	176.305
884.424	115.03
883.259	334.593
882.095	170.052
880.929	275.582
879.764	324.163
878.598	467.468
877.433	667.039
876.266	683.656
875.1	795.012
873.933	864.43
872.766	729.814
871.599	702.744
870.431	695.702
869.263	783.318
868.095	607.429
866.926	658.358
865.758	582.304
864.589	769.137
863.419	618.146
862.25	657.597
861.08	480.792
859.91	349.643
858.739	406.658
857.568	598.539
856.397	485.005
855.227	582.896
854.055	560.479
852.883	717.472
851.711	858.293
850.539	1070.04
849.366	1091.47
848.193	1589.34
847.021	2034.81
845.847	2506.43
844.673	2647.77
843.499	3042.34
842.325	3134.38
841.15	3038.6
839.976	2871.69
838.801	2561.66
837.625	2220.88
836.449	1654.51
835.273	1118.94
834.097	781.36
832.921	305.112
831.744	242.557
830.566	26.4644
829.39	-38.5359
828.212	-56.1445
827.034	-75.0317
825.855	50.6315
824.677	67.1753
823.498	261.954
822.319	442.647
821.14	828.858
819.96	1171.33
818.78	1472.19
817.601	1887.6
816.42	2341.53
815.239	2878.23
814.059	3499.72
812.877	4031
811.695	4429.96
810.514	4713.54
809.331	5488.45
808.149	5709.78
806.966	6502.25
805.783	7061.31
804.6	8119.46
803.416	9297.64
802.232	10875.5
801.049	12175.5
799.864	13795.1
798.68	15118.1
797.494	16018.7
796.31	16755.4
795.124	16759.3
793.938	16807.7
792.752	16489.2
791.565	16328.8
790.379	15690.4
789.191	15105.2
788.005	14380.1
786.817	13341.2
785.629	12500.3
784.441	11326.9
783.253	10382.7
782.064	9533.58
780.875	8662.13
779.687	8268.73
778.497	7915.56
777.307	7688.39
776.117	7633.08
774.927	7421.13
773.735	7318.23
772.545	7485.22
771.354	7796.53
770.162	7783.88
768.971	8070.11
767.778	8521.32
766.586	8859.61
765.394	9103.83
764.2	9448.17
763.007	9579.5
761.813	10042.5
760.62	10211.1
759.426	10294.1
758.231	10145.6
757.037	10057.5
755.842	9921.46
754.646	9520.78
753.451	9013.92
752.256	8648.73
751.06	8256.51
749.863	7926.73
748.666	7607.31
747.47	7302.36
746.272	7182.43
745.074	7284.81
743.877	7345.25
742.679	7172.63
741.48	7325.99
740.281	7046.9
739.083	6721.87
737.884	5956.49
736.684	5101.87
735.484	4371.75
734.284	3664.44
733.084	3272.34
731.883	3197.31
730.682	3167.49
729.48	3269.88
728.279	3624.57
727.077	4119.51
725.875	4682.07
724.673	4837.96
723.47	4407.37
722.268	3566.6
721.063	2835.41
719.86	2151.58
718.656	1763.3
717.452	1393.23
716.248	1618.16
715.043	1524.1
713.838	1848.95
712.633	1951.98
711.427	1940.75
710.222	1802.92
709.015	1937.05
707.809	1756.74
706.602	1848.23
705.395	1870.94
704.188	1895.03
702.979	1683.39
701.771	1708.22
700.563	1489.16
699.355	1185.02
698.146	938.022
696.938	713.08
695.728	423.714
694.519	391.05
693.309	118.966
692.098	210.448
690.888	64.5887
689.677	20.8821
688.466	-5.053256
687.254	66.9319
686.042	-5.728085
684.83	3.052381
683.618	6.943596
682.405	102.459
681.192	37.0083
679.979	-88.7305
678.766	-12.0657
677.552	-8.052253
676.338	-35.6258
675.124	18.0037
673.909	-62.4777
672.694	-129.423
671.479	38.439
670.264	4.599601
669.048	37.4775
667.831	-16.5525
666.615	172.133
665.398	300.453
664.182	139.285
662.964	81.5568
661.746	47.4234
660.528	-67.4224
659.311	109.074
658.092	39.2164
656.873	-11.2355
655.654	20.999
654.435	-27.5445
653.215	-118.036
651.995	18.9476
650.774	-16.7624
649.555	36.0852
648.334	28.4676
647.112	43.9896
645.891	282.392
644.669	303.234
643.447	512.113
642.225	601.212
641.002	601.135
639.779	507.815
638.557	848.497
637.333	1089.56
636.109	1139.47
634.885	1514.95
633.66	1833.39
632.436	2340.75
631.211	2782.72
629.985	3252.73
628.76	3980.25
627.534	5413.92
626.308	7224.09
625.082	11785.9
623.854	20607.1
622.628	33755.8
621.4	42419.6
620.173	37338.5
618.945	24370.6
617.717	13698.3
616.488	8645.92
615.26	5918.5
614.03	4335.06
612.801	2578.19
611.571	1498.26
610.341	1037.84
609.11	678.218
607.88	202.623
606.649	37.7456
605.418	-39.4287