File: Finalized Code/RAMAN Data MITACs/Bulk Carbon Ring Identification/Copy of PureToluene.txt
#Wave		#Intensity
2964.05	75046.5
2961.92	76509.2
2959.79	78885.6
2957.65	81011
2955.52	83391.7
2953.38	85563.6
2951.25	87935.8
2949.11	90268.3
2946.97	92404.9
2944.83	94604.3
2942.69	96832.7
2940.56	99950.3
2938.42	105548
2936.28	112619
2934.13	123311
2931.99	137272
2929.85	155154
2927.71	178214
2925.56	205378
2923.42	233644
2921.28	256920
2919.13	267662
2916.98	260047
2914.84	236620
2912.69	204797
2910.54	173731
2908.39	146426
2906.25	123163
2904.1	105461
2901.95	92012.9
2899.8	81629.6
2897.64	74752.3
2895.49	70182.6
2893.34	67226.9
2891.19	65474.3
2889.03	65006
2886.88	65850.9
2884.72	67694.8
2882.57	70452.4
2880.41	73235.1
2878.25	76296.7
2876.1	78539.5
2873.94	79739
2871.78	80551.5
2869.62	80751.2
2867.46	80746.8
2865.3	80030.1
2863.14	79055.7
2860.98	77125.8
2858.82	73287.8
2856.65	68319.2
2854.49	62244
2852.32	55254.2
2850.16	49275.8
2847.99	43713.7
2845.83	39474.4
2843.66	36413.2
2841.49	33868.4
2839.33	31719
2837.16	30575.5
2834.99	28672.8
2832.82	28180.3
2830.65	27317.6
2828.48	26673.3
2826.31	26608.4
2824.13	25734.3
2821.96	25415.3
2819.79	24821.5
2817.61	24333.4
2815.44	24126.1
2813.26	24252.1
2811.09	24069
2808.91	23848.2
2806.73	23496
2804.56	23108.6
2802.38	22682.6
2800.2	22603
2798.02	22242.4
2795.84	22131.1
2793.66	21880.4
2791.48	21554.6
2789.29	21514.3
2787.11	21526.4
2784.93	21944.6
2782.74	22433.2
2780.56	23309
2778.37	23425.4
2776.19	22649.9
2774	22654.8
2771.81	22410.4
2769.63	22231.1
2767.44	22273.7
2765.25	22038.7
2763.06	21840.3
2760.87	21732.9
2758.68	21604
2756.49	21558.1
2754.3	21923.4
2752.1	21907
2749.91	22435.5
2747.72	23304.1
2745.52	24820.2
2743.33	26831.1
2741.13	29957.8
2738.93	34738
2736.74	39038.2
2734.54	40455.9
2732.34	36887.7
2730.14	31429.3
2727.94	26611.4
2725.74	23814.1
2723.54	21911.1
2721.34	21053.1
2719.14	20389
2716.94	20238.5
2714.73	20029.4
2712.53	19753.6
2710.32	19471.3
2708.12	19731.1
2705.91	20085.6
2703.71	20243.5
2701.5	20092.3
2699.29	19512.4
2697.08	19060.4
2694.88	18977.2
2692.67	18770.1
2690.46	18469.6
2688.24	18700.8
2686.03	18514.2
2683.82	18330
2681.61	18448.6
2679.39	18427.6
2677.18	18543.8
2674.97	18472.2
2672.75	18678.2
2670.54	18860.6
2668.32	19179.9
2666.1	19656.2
2663.88	20527.5
2661.67	20977.4
2659.45	20725.7
2657.23	19918.8
2655.01	19425.3
2652.79	19324.4
2650.56	19061.2
2648.34	19139.8
2646.12	19101.8
2643.9	19169.2
2641.67	19117.8
2639.45	18907.6
2637.22	19011.8
2635	18958.3
2632.77	18845.5
2630.54	19092.8
2628.31	19232.7
2626.08	19304.3
2623.86	19563.5
2621.63	19836
2619.4	20025.7
2617.17	20285.7
2614.93	20848.9
2612.7	21814.5
2610.47	23562.3
2608.23	25435.2
2606	24916.4
2603.77	23991.2
2601.53	22614.3
2599.29	22076.7
2597.06	21373.6
2594.82	21488.8
2592.58	22077.9
2590.34	23295
2588.1	24624.9
2585.86	25610.6
2583.62	25107.6
2581.38	24291.7
2579.14	23625
2576.9	22963.1
2574.65	22301.7
2572.41	21977.9
2570.17	21839.6
2567.92	21687
2565.67	21749.5
2563.43	21573.7
2561.18	21708.3
2558.93	21726.4
2556.69	22193.1
2554.44	22910.9
2552.19	23369.2
2549.94	23083.7
2547.69	22903.4
2545.43	22092.8
2543.18	21807.9
2540.93	21412.6
2538.68	20981.1
2536.42	20840.3
2534.17	20490.9
2531.91	20185.8
2529.66	20052
2527.4	20022
2525.14	19690.9
2522.88	19783.4
2520.62	19662
2518.37	19431.5
2516.11	19336.7
2513.84	19359.8
2511.58	19530.4
2509.32	19199
2507.06	19287
2504.8	19108.7
2502.53	19338.6
2500.27	19102.2
2498	19255
2495.74	19092.3
2493.47	19148.4
2491.2	19327.4
2488.94	19637
2486.67	19543.5
2484.4	19767.3
2482.13	19442.3
2479.86	19507
2477.59	19480.5
2475.32	19241.5
2473.04	19357.6
2470.77	19524
2468.5	19976.2
2466.22	19864.2
2463.95	19774.2
2461.67	19742.3
2459.4	19568.2
2457.12	19363.5
2454.84	19496.8
2452.56	19358.9
2450.29	19259.4
2448	19306.3
2445.73	19243.9
2443.44	19452.4
2441.16	19643.2
2438.88	19862.3
2436.6	20579.8
2434.31	21163.8
2432.03	21465.1
2429.75	21161.4
2427.46	20941.8
2425.17	20649.3
2422.89	20361.3
2420.6	20566.6
2418.31	20752.2
2416.02	20715.8
2413.73	20720.7
2411.44	20249.3
2409.15	19976.1
2406.86	19957.3
2404.57	19733.2
2402.28	19567.8
2399.98	19319
2397.69	19250.4
2395.4	19287.2
2393.1	19327.2
2390.8	19438.7
2388.51	19477.6
2386.21	19490.4
2383.91	19282.1
2381.61	18906.1
2379.31	18808.5
2377.01	18880
2374.71	18619.1
2372.41	18434.1
2370.11	18538
2367.81	18316.4
2365.5	18299.2
2363.2	18374.9
2360.9	18453.9
2358.59	18450.7
2356.29	18769.3
2353.98	18325.6
2351.67	18309.5
2349.36	18043.1
2347.05	17896.6
2344.74	17757.7
2342.44	17822.6
2340.12	17812
2337.81	17761.6
2335.5	17694
2333.19	17589.8
2330.88	17535.2
2328.56	17360.1
2326.25	17419.6
2323.93	17368.3
2321.62	17449.3
2319.3	17353.9
2316.98	17708.8
2314.66	17654.3
2312.34	18105.6
2310.03	17857.7
2307.71	17382.4
2305.38	17152
2303.06	17124.5
2300.74	16964
2298.42	16864.8
2296.09	16613.4
2293.77	16751
2291.45	16769.7
2289.12	16799.1
2286.79	16823.1
2284.47	16562.5
2282.14	16734.2
2279.81	16743.2
2277.48	16643.1
2275.15	16760.1
2272.82	16708.2
2270.49	16616.8
2268.16	16468.9
2265.83	16729.9
2263.5	16714.4
2261.16	16723.4
2258.83	16724.9
2256.49	16516.3
2254.16	16460.3
2251.82	16498.2
2249.48	16334.6
2247.15	16473.6
2244.81	16364.4
2242.47	16457.6
2240.13	16557.1
2237.79	16632
2235.45	16268.7
2233.11	16259.7
2230.76	16042.4
2228.42	16000.5
2226.08	15929.9
2223.73	15955
2221.39	15913.2
2219.04	16011.5
2216.69	15968.6
2214.35	16015.9
2212	15905.2
2209.65	16173
2207.3	16165
2204.95	16067.1
2202.6	16007.3
2200.25	15751.6
2197.9	15648.5
2195.54	15603.7
2193.19	15500.8
2190.84	15550.1
2188.48	15649.2
2186.12	15404.7
2183.77	15537.5
2181.41	15500.2
2179.05	15454.4
2176.7	15454.1
2174.34	15495
2171.98	15324.7
2169.62	15558.6
2167.26	15500.3
2164.89	15444.1
2162.53	15399.5
2160.17	15554
2157.8	15421
2155.44	15278.5
2153.07	15250.8
2150.71	15343.1
2148.34	15319.7
2145.97	15329.9
2143.61	15293.8
2141.24	15200
2138.87	15226
2136.5	15214.1
2134.13	15230.6
2131.76	15128.5
2129.38	15348.6
2127.01	15235
2124.64	15192.7
2122.26	15331.9
2119.89	15212.1
2117.51	15331.2
2115.13	15291.1
2112.76	15183.9
2110.38	15252.7
2108	14994.9
2105.62	15006.1
2103.24	14896
2100.86	14815.3
2098.48	14859
2096.1	14739.6
2093.71	14804.2
2091.33	14830.1
2088.95	14783.9
2086.56	14852.6
2084.18	14857.6
2081.79	14745.8
2079.4	14771.6
2077.02	14795.4
2074.63	14589.8
2072.24	14591.7
2069.85	14589.5
2067.46	14532
2065.06	14685
2062.67	14781.6
2060.28	14586.7
2057.89	14559.5
2055.49	14554.2
2053.1	14476
2050.7	14469.6
2048.31	14364.5
2045.91	14249.1
2043.51	14315.5
2041.11	14443.1
2038.71	14405.6
2036.31	14444.8
2033.91	14501.7
2031.51	14514
2029.11	14463
2026.71	14255.6
2024.3	14242
2021.9	14229.5
2019.49	14151.7
2017.09	14015
2014.68	14205.4
2012.28	14208.4
2009.87	14029.4
2007.46	14302.3
2005.05	14159.5
2002.64	14253.4
2000.23	14151
1997.82	14435.9
1995.41	14696.9
1992.99	14633.7
1990.58	14661.3
1988.17	14332
1985.75	14343.2
1983.34	14145.1
1980.92	14030.7
1978.5	13966.7
1976.08	13860.6
1973.67	13896.6
1971.25	13880.1
1968.83	13978.8
1966.4	13998.3
1963.98	14268.6
1961.56	14292.1
1959.14	14212.8
1956.71	14228
1954.29	14224.8
1951.87	13848.8
1949.44	13819
1947.01	13796.4
1944.59	13665
1942.16	13713.2
1939.73	13784
1937.3	13877.2
1934.87	13862.8
1932.44	13994.8
1930.01	14130.9
1927.57	14260.8
1925.14	14179.7
1922.71	14019.9
1920.27	13821.4
1917.84	13573.9
1915.4	13523.8
1912.96	13573.9
1910.53	13288.9
1908.09	13445.2
1905.65	13447.3
1903.21	13389.1
1900.77	13531
1898.33	13369.8
1895.88	13461.6
1893.44	13442.3
1891	13275.2
1888.55	13278.3
1886.11	13275.3
1883.66	13039.2
1881.22	13193
1878.77	13162.5
1876.32	13191.1
1873.88	13191.2
1871.43	13124.2
1868.97	13271.6
1866.52	13132.5
1864.07	13056.4
1861.62	13001.7
1859.17	13006.9
1856.71	13108.5
1854.26	13062.9
1851.8	12997.1
1849.35	12919.1
1846.89	13161.5
1844.43	12882.9
1841.97	12831.4
1839.52	13036.1
1837.06	12931.9
1834.6	13064.6
1832.13	12953.4
1829.67	12977.8
1827.21	12916.2
1824.75	13075
1822.28	12998.3
1819.82	12959
1817.35	12954
1814.88	13083.4
1812.42	13003.7
1809.95	12934.1
1807.48	13043.2
1805.01	12917.2
1802.54	13033.2
1800.07	12896.2
1797.6	13101.8
1795.12	13210.6
1792.65	13396.9
1790.18	13609.2
1787.7	13742.9
1785.23	13418.8
1782.75	13153.3
1780.27	13150.3
1777.8	12966.4
1775.32	12908.2
1772.84	12734.5
1770.36	12905.3
1767.88	12768.9
1765.4	12701.8
1762.91	12788.2
1760.43	12893.5
1757.95	12825.4
1755.46	12703.3
1752.98	12917.8
1750.49	12778.6
1748	12594.5
1745.52	12855.9
1743.03	12887.9
1740.54	12876
1738.05	12902
1735.56	12852.1
1733.06	13234.9
1730.57	13110
1728.08	13024.1
1725.59	12859.3
1723.09	12960.2
1720.6	12988.1
1718.1	12990.1
1715.6	12991.1
1713.11	12907.4
1710.61	12982.1
1708.11	12836.7
1705.61	13131.5
1703.11	13047.8
1700.61	13174.2
1698.1	13236.8
1695.6	13145.2
1693.1	13212.8
1690.59	13582.5
1688.09	13729.4
1685.58	13879.2
1683.07	13907.7
1680.57	14066.2
1678.06	14190.9
1675.55	14047.6
1673.04	13928.2
1670.53	13964.6
1668.02	13793.7
1665.5	13891.5
1662.99	14014.1
1660.48	14088
1657.96	14195.5
1655.45	14473.3
1652.93	14740.9
1650.41	15087.6
1647.9	15387.5
1645.38	15752.5
1642.86	16080.7
1640.34	16918.6
1637.82	17677.9
1635.29	18747.7
1632.77	20400.3
1630.25	22731.8
1627.73	25690.3
1625.2	28107.5
1622.68	30216.5
1620.15	32012.8
1617.62	34456.3
1615.09	38734.3
1612.57	46882.5
1610.04	62745.2
1607.51	89896.4
1604.97	110739
1602.44	101684
1599.91	75698.2
1597.38	56460.7
1594.84	46851.4
1592.31	44966.6
1589.77	52338.9
1587.24	65057.4
1584.7	68091.1
1582.16	57416.9
1579.62	44779
1577.08	35730.5
1574.54	29877.9
1572	26273.7
1569.46	23809.8
1566.91	21603.1
1564.37	20313.1
1561.83	19121.7
1559.28	18383
1556.73	17933.2
1554.19	17585.5
1551.64	17349.3
1549.09	17053.7
1546.54	16695.8
1543.99	16549.9
1541.44	16503.8
1538.89	16292.7
1536.34	16300.3
1533.79	16287.4
1531.23	16338.9
1528.68	16176.8
1526.12	16390
1523.56	16476.5
1521.01	16534.6
1518.45	16669.6
1515.89	16596.3
1513.33	16845.9
1510.77	17110
1508.21	17206.8
1505.65	17395.7
1503.08	18247.2
1500.52	19277.9
1497.96	20961.3
1495.39	21641
1492.82	20773.5
1490.26	19506.9
1487.69	19042.1
1485.12	18870.3
1482.55	18644.4
1479.98	18942.7
1477.41	19235.1
1474.84	19675.4
1472.27	20003.2
1469.69	20532.9
1467.12	20897.9
1464.54	21409.7
1461.97	21944.3
1459.39	22399.3
1456.81	23162.3
1454.24	23883.2
1451.66	24428.9
1449.08	25318.8
1446.5	25936.1
1443.92	26675.5
1441.33	26931.3
1438.75	27260.2
1436.17	27046.3
1433.58	26454
1431	25316
1428.41	24363.5
1425.82	23189.4
1423.23	22267
1420.65	21137.5
1418.06	20538.5
1415.47	19708.3
1412.88	18960.2
1410.28	18683.3
1407.69	18422
1405.1	18294.2
1402.5	18128.2
1399.91	18409.3
1397.31	18747.8
1394.71	19682.5
1392.12	21386.2
1389.52	23879.4
1386.92	26927.5
1384.32	34617.1
1381.72	48458.2
1379.11	57297.8
1376.51	49350.7
1373.91	35961
1371.3	27688.1
1368.7	23360.1
1366.09	20708.9
1363.48	18915.2
1360.88	17672.7
1358.27	17041.8
1355.66	16516.4
1353.05	16062.8
1350.44	15701
1347.83	15399.5
1345.21	15304.1
1342.6	15372.6
1339.99	15711.5
1337.37	16425.4
1334.76	18135.4
1332.14	19311.4
1329.52	18698.4
1326.9	17136.7
1324.28	16045.6
1321.66	15752.6
1319.04	15768.5
1316.42	16378.9
1313.8	16985.1
1311.17	16908.5
1308.55	16160.2
1305.92	15419.9
1303.3	14556.9
1300.67	14056.5
1298.04	13995.2
1295.42	13598.5
1292.79	13588.5
1290.16	13388.2
1287.53	13432.2
1284.89	13384.4
1282.26	13659.1
1279.63	13726.6
1276.99	13504.8
1274.36	13557.2
1271.72	13482
1269.08	13308.7
1266.45	13205.3
1263.81	13252
1261.17	13251.6
1258.53	13175.7
1255.89	13503.3
1253.24	13852.4
1250.6	14083.5
1247.96	14264.6
1245.31	14370.2
1242.67	14196.1
1240.02	14261.2
1237.38	14346.9
1234.73	14275.6
1232.08	14424.2
1229.43	14608.5
1226.78	15257.7
1224.13	16022.9
1221.47	17305.8
1218.82	20047.4
1216.17	27775.9
1213.51	56297.5
1210.86	97116.7
1208.2	86794.4
1205.54	49800.2
1202.88	30713.9
1200.23	24413
1197.57	22477.7
1194.91	21823.8
1192.24	21615.6
1189.58	22625.3
1186.92	25267.6
1184.25	30309.3
1181.59	37987.3
1178.92	43198.2
1176.26	38519.4
1173.59	30859.3
1170.92	26392.8
1168.25	25091.4
1165.58	25889
1162.91	29398
1160.24	35907.3
1157.57	44839.4
1154.89	47497
1152.22	39688.9
1149.54	29718.2
1146.87	23749.2
1144.19	20379.2
1141.51	18287.9
1138.83	17118.2
1136.15	16461.3
1133.47	15958.1
1130.79	15482.1
1128.11	15018.5
1125.43	14562.7
1122.74	14280.6
1120.06	14246.3
1117.37	14300.1
1114.68	14244.5
1112	14298.2
1109.31	14414
1106.62	14516.8
1103.93	14379.7
1101.24	14281.6
1098.55	14265
1095.85	14056.9
1093.16	14454.5
1090.47	14698.4
1087.77	15095.5
1085.07	15775.9
1082.38	16379.2
1079.68	16241.9
1076.98	15801.1
1074.28	14956.7
1071.58	14704.7
1068.88	14547
1066.18	14353.3
1063.47	14577.1
1060.77	14641.5
1058.06	14674.5
1055.36	15029.5
1052.65	15390.8
1049.95	15870.4
1047.24	16342.4
1044.53	17039.3
1041.82	17794.5
1039.11	19362.9
1036.39	23371.8
1033.68	48290.6
1030.97	99024.4
1028.25	84399.4
1025.54	38479.6
1022.82	24625.4
1020.1	21416.5
1017.39	20285.5
1014.67	21359.5
1011.95	25783.5
1009.23	42671.2
1006.5	138821
1003.78	317619
1001.06	237744
998.334	79680.6
995.609	37381.8
992.883	30162.1
990.156	27558.1
987.428	22676.7
984.699	18925.3
981.969	17642
979.238	17093.7
976.508	16818.3
973.775	16475.6
971.043	16041.1
968.309	15784.6
965.572	15273.2
962.838	14724
960.1	14301.6
957.363	13900.3
954.625	13618.5
951.885	13537.7
949.145	13268.9
946.402	13237.3
943.66	13027.7
940.918	12798.4
938.174	12943.9
935.43	13025
932.684	13003.5
929.938	12910.4
927.189	12826.4
924.441	12713.5
921.691	12622.4
918.941	12619.2
916.189	12640.4
913.438	12644.4
910.686	12757.8
907.932	12830.5
905.176	13360.5
902.42	13817.9
899.664	15069
896.906	16210
894.148	16285
891.389	15287.9
888.629	14203.1
885.867	13365.1
883.105	12881.1
880.344	12790.4
877.58	12741.1
874.814	12666.7
872.049	12744.5
869.283	12668.3
866.516	12648
863.746	12681.6
860.979	12696.3
858.207	12893.5
855.438	13294.5
852.664	13898.3
849.893	15126.7
847.119	16747.5
844.344	18273.9
841.568	18575.6
838.791	17666.4
836.014	16291.6
833.236	15114
830.457	14334
827.676	13809
824.895	13583.3
822.113	13688.9
819.33	14287.5
816.547	15497.5
813.762	16874.8
810.977	18520.2
808.189	18322
805.402	17555.8
802.613	16916.9
799.824	17112.2
797.035	18411.3
794.244	22001.3
791.451	37151.5
788.658	100964
785.865	161059
783.07	102282
780.273	46860.5
777.477	25946.7
774.68	18125.2
771.881	15043.3
769.082	14067.1
766.281	13348.4
763.48	13095.1
760.678	12740.7
757.875	12667.2
755.07	12540.5
752.266	12358
749.461	12518.1
746.654	12490.9
743.846	12771.4
741.037	13266.4
738.229	14284.7
735.418	15994.4
732.605	17933.2
729.793	18861.3
726.98	17381.4
724.166	15409.7
721.352	13857.6
718.535	12988.3
715.717	12623.3
712.9	12306.4
710.08	12138
707.262	11991
704.441	11987
701.619	12024.5
698.797	12013.5
695.973	12133.9
693.148	12073.5
690.322	12037.7
687.496	11805.6
684.67	11687.2
681.842	11651.6
679.012	11662.8
676.182	11527.8
673.352	11577.7
670.52	11455.1
667.688	11592.9
664.854	11400.1
662.018	11540.4
659.182	11467.2
656.346	11725.9
653.508	11968.6
650.67	12128.7
647.83	12346.6
644.99	12814.2
642.148	13395.3
639.307	14212.7
636.463	15438.5
633.619	17822.6
630.775	22226.9
627.928	30183.1
625.082	41948.4
622.234	48885.6
619.385	43272.8
616.535	32395
613.686	24052.1
610.834	18978.8
607.98	16170.5
605.127	14575.3
602.273	13597.8
599.418	12998.6
596.561	12440.7
593.703	12218.7
590.846	12008.2
587.986	11716
585.127	11711.2
582.266	11481.1
579.402	11566
576.541	11357
573.676	11509.7
570.811	11430.3
567.945	11363.1
565.078	11373.2
562.211	11508.4
559.342	11648.6
556.473	11698.6
553.602	11720.7
550.73	11801
547.857	11986
544.984	12288
542.111	12873.9
539.234	13284.4
536.359	14280.8
533.482	15726.5
530.604	18568.5
527.725	25554.6
524.844	44265.7
521.963	71112.9
519.082	62550.5
516.199	37230.9
513.314	23461.7
510.43	17739.2
507.545	14916.9
504.658	13563.8
501.77	12782.4
498.881	12237.7
495.992	11795.9
493.102	11539.6
490.209	11524.6
487.316	11207.4
484.424	11220.1
481.529	11282.6
478.633	11423.3
475.738	11626.7
472.84	12293.2
469.941	13703.3
467.043	16004.8
464.143	16652.9
461.242	14579.8
458.34	12748.2
455.436	11765.3
452.531	11107.2
449.627	10878.1
446.721	10835.1
443.814	10840.9
440.906	10812.5
437.998	10728.5
435.088	10820.8
432.178	10801.8
429.266	10787.9
426.354	10688.6
423.439	10830.4