File: Finalized Code/RAMAN Data MITACs/HONGYAN/Chlorpyrifos Powder/Powder(1).txt
#Wave	#Intensity
1184.64	11549.8
1183.55	11563.5
1182.46	11618.1
1181.37	11501.5
1180.28	11460.2
1179.19	11569.5
1178.1	11674.3
1177.01	11699.2
1175.92	11555.2
1174.82	11728.3
1173.73	11673.3
1172.64	11951.2
1171.55	11882.5
1170.45	11681.7
1169.36	11622.3
1168.27	11915.8
1167.17	11589.9
1166.08	11601.1
1164.99	11705.6
1163.89	11709.9
1162.8	11680
1161.7	11622.9
1160.61	11534
1159.51	11670.2
1158.42	11679
1157.32	11644.7
1156.23	11508.1
1155.13	11685.1
1154.03	11469.1
1152.94	11854.9
1151.84	11736.5
1150.74	11761.2
1149.64	11584
1148.55	11694.9
1147.45	11685.6
1146.35	11803.2
1145.25	11603.4
1144.15	11691.6
1143.06	11936.1
1141.96	11670.7
1140.86	11693.1
1139.76	11885.3
1138.66	11889.6
1137.56	11533.8
1136.46	11798.4
1135.36	11614.8
1134.26	11793.3
1133.16	11813.4
1132.06	11840.2
1130.95	11846.7
1129.85	11629.4
1128.75	11658.5
1127.65	11827.7
1126.55	11777.7
1125.44	11833.9
1124.34	11671
1123.24	11833.3
1122.13	11882.6
1121.03	11927.5
1119.93	11893.3
1118.82	11904.3
1117.72	11770.9
1116.61	11910.4
1115.51	11741
1114.4	11921
1113.3	12024.3
1112.19	11974.4
1111.09	12149.7
1109.98	12090.8
1108.88	12076.9
1107.77	12342.1
1106.66	12328.2
1105.56	12613.5
1104.45	12457.8
1103.34	12626
1102.23	12472.6
1101.13	12469.9
1100.02	12444.8
1098.91	12372.4
1097.8	12349.5
1096.69	12147
1095.58	12429.5
1094.47	12096.8
1093.37	12035.8
1092.25	12387.8
1091.15	11970.1
1090.04	12075.1
1088.92	12059
1087.81	12327.7
1086.7	12163.6
1085.59	12273
1084.48	12008.3
1083.37	12348.4
1082.26	12117.3
1081.14	12078.8
1080.03	12396.3
1078.92	12288.4
1077.81	12095.6
1076.69	12249.5
1075.58	12340.8
1074.47	12034
1073.35	12185.7
1072.24	12033.3
1071.12	12053
1070.01	12405.6
1068.89	12244.3
1067.78	12277.4
1066.67	12225.6
1065.55	12187.2
1064.43	12102
1063.32	12115
1062.2	12297.5
1061.08	12419.7
1059.97	12227.5
1058.85	12251.6
1057.73	12262.3
1056.62	12264.1
1055.5	12328.3
1054.38	12354.5
1053.26	12309.5
1052.14	12373.6
1051.02	12455.5
1049.91	12337.1
1048.79	12278.8
1047.67	12460.7
1046.55	12382.4
1045.43	12399.7
1044.31	12519.3
1043.19	12312.1
1042.07	12382.7
1040.95	12226.8
1039.82	12324.1
1038.7	12476.8
1037.58	12391.9
1036.46	12524.6
1035.34	12559.6
1034.21	12463.7
1033.09	12414.4
1031.97	12227.7
1030.85	12493.3
1029.72	12501.6
1028.6	12647.4
1027.48	12440.8
1026.35	12633
1025.23	12433.1
1024.1	12638.5
1022.98	12595.9
1021.85	12582.1
1020.73	12634.7
1019.6	12654.1
1018.48	12657.9
1017.35	12608.7
1016.22	12278.8
1015.1	12755.7
1013.97	12498.8
1012.84	12562.4
1011.72	12736.3
1010.59	12495.1
1009.46	12766.1
1008.33	12712.5
1007.21	12756.1
1006.08	12457.7
1004.95	12644.6
1003.82	12646.3
1002.69	12588.4
1001.56	12517.3
1000.43	12704.1
999.3	12630.8
998.17	12559.8
997.039	12574.6
995.908	12514.6
994.777	12721
993.646	12722.7
992.515	12629.7
991.383	12706.1
990.251	12815.5
989.119	12515.8
987.986	12667
986.854	12908.2
985.721	12498.8
984.588	12731.2
983.454	12888.7
982.32	12833.2
981.187	12850.1
980.053	12891.2
978.918	12985
977.783	12793.4
976.648	13012.2
975.513	12958.9
974.378	12782.8
973.242	13124.2
972.105	13007.4
970.97	13048.3
969.833	12977.5
968.696	13011.9
967.56	12901.8
966.423	12971.2
965.285	13139.1
964.147	12849.5
963.01	13030.5
961.871	12830.7
960.732	12773.2
959.594	13019.7
958.455	13034.3
957.315	13228.2
956.177	13019.9
955.037	13071.6
953.896	12863.4
952.757	12902.1
951.616	13047.7
950.476	13086.3
949.334	13133.6
948.193	13021.6
947.052	13064.6
945.91	13007.2
944.769	13061
943.626	13029.8
942.483	13077
941.341	12969.6
940.198	13008.1
939.055	12942.1
937.911	12950.1
936.768	13134.5
935.623	13038
934.479	13348.5
933.335	13108.4
932.19	13116.4
931.045	13359.2
929.899	13423.7
928.754	13140.3
927.608	13172.2
926.463	13386.5
925.316	13283.7
924.17	13287.2
923.023	12997.7
921.876	13296.6
920.729	13378.3
919.581	13188.7
918.434	13220.5
917.285	13388.9
916.138	13355.6
914.988	13287.6
913.84	13544.8
912.69	13283.9
911.542	13194.3
910.392	13336.5
909.242	13368.2
908.092	13586.1
906.941	13531.1
905.791	13400.5
904.641	13406.1
903.489	13494
902.338	13333.2
901.187	13122.6
900.034	13480.7
898.883	13447.5
897.73	13548.2
896.577	13372.4
895.425	13300.3
894.271	13390.2
893.118	13613.9
891.965	13410.2
890.811	13450.4
889.656	13591.9
888.502	13280.5
887.348	13557.9
886.192	13546.2
885.037	13601.4
883.882	13540.2
882.727	13627.7
881.57	13478.2
880.414	13740.1
879.258	13605.7
878.102	13587.6
876.944	13653.5
875.787	13495.5
874.63	13531.2
873.472	13706.7
872.313	13712.3
871.155	13698.5
869.997	13811.5
868.838	13754.7
867.679	13871.9
866.52	13806.6
865.36	14009.6
864.2	13888.4
863.04	13939
861.88	13953.1
860.72	13913.5
859.559	13790.3
858.397	13950.2
857.236	13882.7
856.074	13768.2
854.913	14078
853.751	14179.8
852.588	14146.7
851.426	14327.7
850.263	14245.3
849.1	14070.9
847.937	14168.3
846.772	14081.7
845.608	13913.8
844.444	13985.6
843.28	14155.7
842.115	14152.5
840.95	14262.6
839.785	14176.1
838.619	14207.1
837.453	14169.7
836.287	14111
835.121	14218.9
833.955	14091.9
832.788	14280.8
831.621	14339.5
830.453	14208.3
829.286	14414.1
828.118	14329.9
826.95	14179.6
825.781	14229.7
824.613	14418.3
823.444	14525.8
822.274	14441.6
821.105	14389.4
819.936	14258.5
818.766	14285
817.596	14518
816.425	14236.1
815.254	14235
814.083	14257.3
812.912	14426.3
811.74	14336
810.568	14732.2
809.396	14629.1
808.225	14415.5
807.052	14431.4
805.879	14411.2
804.706	14410
803.532	14440.7
802.358	14583.9
801.185	14544.6
800.011	14549.8
798.836	14514.7
797.661	14481.7
796.486	14300.5
795.312	14617.2
794.136	14472
792.96	14477.2
791.784	14435.8
790.607	14720.4
789.432	14748.9
788.254	14644
787.077	14748.6
785.9	14855.2
784.723	14570.6
783.545	14804.1
782.366	14834.6
781.1875	14801.7
780.009	14849
778.83	14731.6
777.651	14755.8
776.472	14798.9
775.292	14698.4
774.112	15022.2
772.932	14978.7
771.751	15025.9
770.57	14763.2
769.389	14896.9
768.208	14731.2
767.026	14926
765.845	14941.5
764.662	14915
763.479	14795.8
762.297	15061.9
761.114	15001.7
759.931	14905.7
758.747	14748.7
757.563	15035.7
756.38	14765.2
755.195	15068.8
754.011	15275.6
752.826	15070.4
751.641	15220.3
750.455	15103.5
749.27	15030.7
748.084	15039.9
746.897	15210.7
745.711	15098.2
744.524	15117.8
743.338	15091.3
742.15	15255.7
740.963	15266.9
739.775	15238.2
738.587	15012.6
737.398	15210.4
736.21	15062.4
735.021	15193
733.832	15315.2
732.643	15106.5
731.453	15101
730.263	15028.5
729.073	15265.7
727.883	15065.6
726.691	15112.3
725.501	15152.8
724.31	15207.9
723.118	15568
721.926	15320
720.733	15517
719.541	15490.5
718.349	15512.1
717.155	15402.1
715.963	15584.3
714.769	15476.4
713.575	15627.2
712.381	15486
711.187	15376.2
709.992	15483.1
708.798	15552.5
707.603	15513.6
706.407	15666.2
705.211	15704.3
704.016	15513.3
702.819	15447.3
701.623	15610.3
700.426	15675.4
699.229	15503.3
698.031	15726.4
696.834	15706.2
695.636	15696.4
694.438	15730.2
693.239	15843
692.041	15629.5
690.842	15997.7
689.643	15730.3
688.443	15718.4
687.243	15754.25
686.044	15684.2
684.843	16018.8
683.643	16129.2
682.441	16111
681.24	16644.2
680.039	17222.7
678.837	18130.5
677.636	17834.2
676.434	17453.2
675.23	16728.6
674.027	16424.6
672.824	16075.2
671.621	15951.5
670.418	16043
669.214	16148.9
668.01	16219.6
666.805	15790
665.601	15893.9
664.396	15935.7
663.19	15909.3
661.984	16172.1
660.778	16063
659.572	16197.6
658.366	15981.3
657.159	16072.6
655.952	16192.6
654.745	16199.2
653.538	16271.8
652.33	16614.4
651.122	16787.8
649.913	17000.3
648.705	16790.4
647.496	16438.4
646.286	16440.8
645.077	16451.4
643.867	16560.8
642.657	16768.9
641.447	16769.2
640.236	16798.2
639.025	16973.2
637.814	17203.7
636.603	17960.2
635.392	18995.8
634.18	20626.8
632.967	21380
631.755	21075.2
630.542	20132.1
629.328	18980
628.115	18448.3
626.901	17734.125
625.6875	17299.3
624.474	17328.1
623.259	16959.1
622.044	17026.9
620.829	17084.5
619.613	16881.8
618.397	16791.8
617.182	16800.2
615.966	16927.4
614.749	16757.6
613.532	16665.8
612.315	16954.5
611.098	17038.5
609.88	16965
608.662	16946.7
607.444	17002.1
606.226	16938.9
605.007	16732.7
603.788	16837
602.568	16741.2
601.349	16912.9
600.129	16733.4
598.909	16811.2
597.688	16801.1
596.468	16895.1
595.247	16913.625
594.025	16899.5
592.804	16769.2
591.582	17388.9
590.359	16908.1
589.138	16863.4
587.914	17175.1
586.691	17303.4
585.468	17268.9
584.244	17216
583.021	16929.2
581.797	16961.8
580.572	16894.8
579.348	17077.9
578.122	17283.3
576.897	17322
575.672	17143.2
574.445	17238.7
573.22	17382.9
571.993	17246.9
570.767	17496.6
569.539	17518.9
568.312	17677.1
567.084	17466.1
565.856	17579.6
564.628	17492.3
563.399	17577.4
562.171	17390.9
560.941	17496.3
559.713	17518.5
558.483	17409.1
557.253	17297.7
556.022	17785.5
554.792	17662
553.562	17400.9
552.33	17868.1
551.1	17453.4
549.867	17720.2
548.636	17586.7
547.403	17873.5
546.171	17764.3
544.938	17838.9
543.705	17994.2
542.472	17848.7
541.238	17915.1
540.004	18003.7
538.77	18181.1
537.535	18199
536.301	18233
535.065	18246.9
533.83	18373.6
532.594	18204
531.358	18371
530.122	18217.6
528.886	18263.7
527.648	18118.5
526.411	18299.4
525.174	18069.7
523.937	18532.2
522.698	18728.9
521.46	19255.3
520.222	19172.4
518.982	18534.8
517.743	18142.6
516.504	17879.2
515.264	18009.5
514.023	18043.4
512.783	18147.6
511.543	17886.4
510.302	17932.3
509.061	17859.9
507.819	18038.2
506.577	17859.5
505.335	17917.4
504.093	18185.7
502.85	18117.3
501.607	18261.3
500.363	18208.9
499.12	18046.4
497.876	18160.2
496.632	18414.1
495.388	18417.7
494.143	18347.4
492.897	18227
491.652	18328.7
490.406	18590.2
489.161	18605.8
487.914	18719.3
486.668	18850.7
485.421	18630.5
484.174	18729.9
482.927	18801.3
481.679	18717
480.431	18736.5
479.183	18941.5
477.934	18761.5
476.685	18643.4
475.436	18511.4
474.187	18471.2
472.937	18819.4
471.687	18801
470.436	18816.5
469.186	18523.3
467.935	18745.8
466.683	18948.3
465.432	18832.4
464.18	18762.3
462.928	18710.1
461.675	18775.2
460.422	18794.6
459.169	18875.6
457.916	18867.1
456.662	18979.8
455.408	18675.4
454.153	18943
452.899	18882.9
451.645	18836.7
450.389	18917.5
449.134	18974.5
447.878	19001.7
446.622	19139.9
445.365	19440.5
444.108	19112.9
442.852	18890.4
441.595	18927.5
440.337	19346.7
439.079	19193.6
437.821	19133.6
436.5625	19166.7
435.304	19340.1
434.045	19135.8
432.785	19216.2
431.525	19300.6
430.266	19260.4
429.005	19319
427.745	19391.4
426.483	19453.9
425.223	19461.1
423.961	19411
422.699	19524.8
421.4375	19678
420.175	19462.2
418.912	19625.1
417.649	19632.3
416.386	19759.6
415.122	19928.3
413.858	19712.7
412.595	19798.6
411.33	19553.6
410.065	19568.6
408.8	19784.3
407.534	19582.8
406.269	19739.4
405.003	19764.2
403.736	19910.9
402.47	19748.8
401.203	19524
399.936	19625.4
398.668	19461.5
397.4	19515.8
396.132	19744.7
394.863	19655.6
393.595	19623.375
392.325	19593.1
391.057	19798.3
389.786	19874
388.517	19657.4
387.246	19995.7
385.976	19979.2
384.705	20050.8
383.434	20026.3
382.162	19514.3
380.891	20034.3
379.618	19810.3
378.346	20118.6
377.073	19845.7
375.8	19895.7
374.526	19822.5
373.253	20204.8
371.979	19883.3
370.704	19747.5
369.43	20014.3
368.155	20193.1
366.88	19836.7
365.604	19833.9
364.328	20223.3
363.053	20052.6
361.776	20215.5
360.499	20130.7
359.223	20435.8
357.944	20197
356.667	20355.8
355.389	20302.2
354.111	20468.7
352.832	20553.3
351.554	20766.4
350.274	20973.5
348.994	21419.9
347.715	21397.2
346.435	22316
345.154	23928.5
343.873	24636.2
342.593	23911.1
341.311	23332
340.029	22881.5
338.747	22536
337.465	22204.3
336.183	21867
334.899	21465.8
333.616	21305.3
332.332	21141.1
331.049	20854.7
329.765	21028.1
328.479	21059.8
327.195	20858.9
325.91	20968.2
324.625	20899.2
323.339	20878.6
322.053	20861.9
320.767	20636.2
319.479	20768.6
318.192	20887.3
316.905	20681.1
315.618	20946.8
314.33	20945.6
313.041	20573.2
311.753	21043.6
310.464	20994
309.175	20548.6
307.886	20669.1
306.596	20905.3
305.306	20734.3
304.015	21049.5
302.725	20809.1
301.433	21104.8
300.142	20881.8
298.85	20874.8
297.558	20860.1
296.266	20822.2
294.973	21011.7
293.68	21035.5
292.387	20972.6
291.093	21027.1
289.799	20652.5
288.505	20603.2
287.21	20886.7
285.915	21114.3
284.62	20974.6
283.325	20834.9
282.029	20583.9
280.732	20774.8
279.437	20612.2
278.14	20806.9
276.843	20844
275.545	20823.6
274.247	21067.9
272.949	21047.4
271.651	20971.3
270.353	21052.5
269.054	21145.1
267.754	21124.6
266.454	20814.8
265.154	20962.9
263.854	21178
262.554	20973.7
261.253	21223.1
259.951	21120.4
258.65	21186
257.349	21004.8
256.046	21036
254.743	21101.6
253.44	21142.3
252.138	20963.2
250.834	21471.9
249.53	21075.2
248.227	21312.5
246.922	21515.3
245.617	21573
244.3125	21434.2
243.007	21358.3
241.701	21744
240.396	21504.2
239.089	21392.2
237.782	21470.8
236.475	21379.7
235.168	21281.2
233.86	21354
232.552	20857.6
231.244	20978.1
229.936	21050.9
228.627	20998.2
227.317	21034.9
226.008	20814.8
224.698	21151.9
223.388	20757.1
222.077	20565.8
220.767	21109.7
219.455	20794.9
218.144	20877.2
216.832	20915.7
215.52	20745.4
214.207	20852.3
212.895	20955.2
211.581	20936.8
210.268	20996.1
208.954	20877.2
207.641	20944.1
206.326	21319.7
205.011	21570.1
203.696	21848.8
202.381	21773.4
201.065	21592
199.749	21274.5
198.433	21203
197.116	21001.1
195.799	21009.2
194.481	20911.4
193.164	20792.8
191.846	20795.2
190.527	21201.9
189.209	20841.625
187.891	20961.1
186.571	20950.2
185.251	21111.1
183.932	21075.7
182.611	21306.3
181.291	21189.7
179.97	21501.2
178.648	21307.4
177.327	21272
176.005	21577.5
174.683	21570.3
173.36	21421.9
172.037	21482.5
170.714	21629.6
169.391	21492.5
168.066	21519.2
166.742	21547.7
165.418	21728.5
164.094	22337.7
162.769	22463.7
161.442	22625.3
160.117	22383.1
158.791	21855.6
157.464	21502.9
156.138	21127.8
154.811	21120.7
153.482	20905.4
152.155	20669.6
150.827	20454.5
149.499	20331.3
148.17	20122
146.841	20221.9
145.511	20297.4
144.182	20052.7
142.852	20244.3
141.521	20321.6
140.19	20587.9
138.859	20328.4
137.527	20624.4
136.196	20337
134.864	20552.5
133.531	20362.4
132.198	20349.9
130.865	20675.4
129.532	20840.2
128.198	20536.3
126.864	20686.2
125.53	20783.6
124.195	20905.3
122.86	20819.9
121.524	20874.4
120.189	20914
118.854	20929.3
117.517	21007.9
116.18	20978.5
114.843	20815
113.506	20564
112.168	20235
110.83	19956.4
109.491	19201.7
108.152	18294.8
106.813	17377.2
105.475	16209.1
104.135	15132.7
102.795	13956.4
101.454	12869.9
100.113	11795.1
98.7725	10589
97.4307	9166.33
96.0889	7584.74
94.74707	6035.48
93.4043	4281.1
92.0615	3024.58
90.71875	2111.67
89.376	1371.6
88.0322	882.05
86.6875	589.122
85.34375	390.798
83.999	277.749
82.65332	251.763
81.3076	186.924
79.9619	125.819
78.6162	129.487
77.2695	135.003
75.9229	112.782
74.5762	142.329
73.2285	114.574
71.8809	110.85
70.5322	108.976
69.18457	151.42
67.8359	121.844
66.4863	99.6656
65.1367	125.474
63.7871	121.753
62.4375	108.812
61.0869	130.911
59.7354	114.288
58.3848	88.4589
57.0332	73.6974
55.6816	121.57
54.3291	130.747
52.9766	90.2116
51.624	93.8702
50.2705	110.408
48.917	106.701
47.5635	128.745
46.209	90.0988
44.8545	84.5614
43.5	106.594
42.1445	110.242
40.7891	108.378
39.4336	110.187
38.0771	100.98
36.7207	124.816
35.3633	110.104
34.0059	115.581
32.6484	97.2101
31.291	110.022
29.9326	58.6635
28.5742	106.301
27.2148	89.7835
25.8555	93.4247
24.4961	76.9187
23.1357	104.364
21.7764	98.846
20.415	115.291
19.0547	89.6486
17.6934	107.917
16.3311	120.691
14.9697	109.691
13.6074	115.147
12.2441	104.154
10.8809	151.626
9.517578	126.019
8.154297	151.549
6.790039	144.21
5.425781	197.098
4.060547	445.184
2.696289	1524.92
1.330078	4537.14
-0.035156	6510.47
-1.401367	4472.89
-2.767578	1521.57
-4.134766	449.979
-5.501953	271.377
-6.869141	162.057
-8.237305	132.89
-9.605469	127.396
-10.9736	123.725
-12.3428	110.961
-13.7119	118.208
-15.0811	90.9061
-16.4512	118.148
-17.8213	107.215
-19.1924	96.2879
-20.5635	118.059
-21.93457	123.477
-23.3057	145.231
-24.6777	81.6717
-26.0498	105.239
-27.4229	97.9568
-28.7959	79.7966
-30.1689	105.16
-31.543	77.9439
-32.917	61.6145
-34.291	76.093
-35.666	97.8092
-37.041	108.65
-38.416	50.6904
-39.792	95.9255
-41.168	70.569
-42.5449	90.4503
-43.9219	61.4907
-45.2988	104.87
-46.6758	92.18969
-48.0537	88.5521
-49.4326	66.8491
-50.8105	86.7013
-52.1895	79.4562
-53.5684	95.6845
-54.9482	95.6604
-56.3281	90.223
-57.709	64.9442
-59.0889	95.5882
-60.4697	99.1704
-61.8516	82.9216
-63.2334	99.1205
-64.6152	99.0955
-65.99707	104.474