File: Finalized Code/RAMAN Data MITACs/TULSI/PMMA on Si substrate/Si-hydrophilic-blank with PMMA.txt
#Wave		#Intensity
2001.44	3771.76
1999.58	3294.28
1997.72	3306.37
1995.86	3224.78
1994	3349.25
1992.13	3286.42
1990.27	3223.65
1988.41	3233.07
1986.54	3242.48
1984.68	3251.88
1982.81	3277.29
1980.95	3273.33
1979.08	3101.37
1977.21	3113.48
1975.34	3053.63
1973.47	3137.66
1971.6	3141.75
1969.73	3180.43
1967.86	3144.59
1965.99	3084.84
1964.11	3107.55
1962.24	3055.84
1960.37	3121.04
1958.49	3002.98
1956.61	3100
1954.74	2984.69
1952.86	2930.47
1950.98	2971.73
1949.1	3113.65
1947.22	2884.62
1945.34	2830.52
1943.46	2959.1
1941.58	2960.57
1939.7	2872.13
1937.81	2759.96
1935.93	2843.43
1934.04	2863.44
1932.16	2827.98
1930.27	2850.62
1928.38	2976.13
1926.5	2853.64
1924.61	2805.05
1922.72	2880.37
1920.83	2787.03
1918.94	2883.35
1917.04	2821.67
1915.15	2878.44
1913.26	2756.32
1911.36	2681.61
1909.47	2617.48
1907.57	2676.86
1905.68	2670.55
1903.78	2732.49
1901.88	2629.07
1899.98	2664.75
1898.08	2603.39
1896.18	2641.67
1894.28	2763.75
1892.38	2689.33
1890.48	2617.59
1888.58	2564.22
1886.67	2563.2
1884.77	2669.38
1882.86	2574.23
1880.96	2515.74
1879.05	2671.42
1877.14	2537.23
1875.23	2528.4
1873.32	2483.05
1871.42	2422.1
1869.5	2447.2
1867.59	2456.65
1865.68	2549.42
1863.77	2498.95
1861.85	2490.15
1859.94	2429.33
1858.02	2456.97
1856.11	2339.04
1854.19	2410.85
1852.27	2329.38
1850.36	2328.46
1848.44	2446.89
1846.52	2378.48
1844.6	2343.83
1842.67	2397.32
1840.75	2341.96
1838.83	2410.95
1836.91	2412.58
1834.98	2416.79
1833.06	2351.16
1831.13	2311.44
1829.2	2390.64
1827.28	2299.27
1825.35	2290.6
1823.42	2289.69
1821.49	2332.64
1819.56	2313.65
1817.63	2194.13
1815.7	2242.22
1813.76	2285.12
1811.83	2222.41
1809.89	2200.93
1807.96	2279.81
1806.02	2271.19
1804.09	2113.44
1802.15	2248.81
1800.21	2160.57
1798.27	2175.11
1796.33	2171.67
1794.39	2196.47
1792.45	2082.73
1790.51	2097.28
1788.57	2152.83
1786.62	2095.6
1784.68	2120.37
1782.73	1955.7
1780.79	2075.18
1778.84	2053.89
1776.89	2068.4
1774.94	2044.57
1772.99	2030.98
1771.04	2094.01
1769.09	2008.93
1767.14	2054.06
1765.19	1961.41
1763.24	2047.31
1761.28	2051.59
1759.33	1989.63
1757.37	1960.82
1755.42	1911.67
1753.46	1999.96
1751.5	1945.74
1749.54	1911.91
1747.58	1928.93
1745.62	1925.62
1743.66	1957.86
1741.7	1926.61
1739.74	1882.7
1737.78	1836.29
1735.81	1924.29
1733.85	2002.08
1731.88	1821.42
1729.91	1886.52
1727.95	1771.86
1725.98	1882.48
1724.01	1823.55
1722.04	1870.85
1720.07	1872.63
1718.1	1785.98
1716.13	1780.22
1714.15	1857.75
1712.18	1826.72
1710.21	1755.37
1708.23	1845.42
1706.25	1789.24
1704.28	1685.24
1702.3	1772.69
1700.32	1789.59
1698.34	1688.23
1696.36	1757.97
1694.38	1782.4
1692.4	1610.8
1690.42	1770.92
1688.44	1664.75
1686.45	1719.29
1684.47	1751.22
1682.48	1760.54
1680.5	1729.75
1678.51	1751.6
1676.52	1770.94
1674.53	1795.26
1672.54	1809.55
1670.55	1788.81
1668.56	1720.56
1666.57	1744.87
1664.58	1761.65
1662.58	1671.02
1660.59	1667.85
1658.59	1684.65
1656.6	1713.9
1654.6	1653.36
1652.6	1635.24
1650.6	1642.06
1648.6	1614
1646.6	1536.16
1644.6	1617.67
1642.6	1612.04
1640.6	1589.01
1638.6	1563.51
1636.59	1620.02
1634.59	1482.76
1632.58	1482.16
1630.58	1600.68
1628.57	1577.71
1626.56	1517.56
1624.55	1586.35
1622.54	1605.52
1620.53	1614.78
1618.52	1576.99
1616.51	1497.16
1614.49	1526.24
1612.48	1481.11
1610.47	1549.72
1608.45	1640.5
1606.43	1513.89
1604.42	1515.74
1602.4	1549.67
1600.38	1583.58
1598.36	1553.35
1596.34	1508.35
1594.32	1532.38
1592.3	1556.38
1590.27	1528.67
1588.25	1402.56
1586.23	1505.29
1584.2	1335.04
1582.17	1486.87
1580.15	1466.61
1578.12	1478.29
1576.09	1416.32
1574.06	1455.01
1572.03	1383.29
1570	1429.31
1567.97	1514.5
1565.94	1474.69
1563.9	1449.6
1561.87	1363.34
1559.83	1453.31
1557.8	1452.72
1555.76	1430.13
1553.72	1375.79
1551.68	1397.21
1549.64	1413.73
1547.6	1427.8
1545.56	1366.23
1543.52	1453.46
1541.48	1499.19
1539.43	1430.35
1537.39	1405.41
1535.34	1331.79
1533.3	1282.57
1531.25	1340.44
1529.2	1322.87
1527.16	1404.97
1525.11	1358.23
1523.06	1279.96
1521	1238.16
1518.95	1298.33
1516.9	1275.97
1514.85	1297.27
1512.79	1272.5
1510.74	1310.75
1508.68	1356.22
1506.62	1249.15
1504.57	1277.68
1502.51	1289.25
1500.45	1279.05
1498.39	1227.78
1496.33	1273.18
1494.26	1328.2
1492.2	1276.96
1490.14	1387.43
1488.07	1232.5
1486.01	1328.44
1483.94	1277.28
1481.88	1226.17
1479.81	1338.84
1477.74	1244.42
1475.67	1236.69
1473.6	1320.36
1471.53	1245.3
1469.46	1302.46
1467.38	1309.13
1465.31	1241.37
1463.23	1243.26
1461.16	1209.16
1459.08	1242.24
1457	1299.26
1454.93	1257.99
1452.85	1334.12
1450.77	1223.44
1448.69	1282.77
1446.61	1349.22
1444.52	1217.15
1442.44	1278.8
1440.36	1232.88
1438.27	1277.75
1436.18	1186.5
1434.1	1279.08
1432.01	1168.83
1429.92	1196.96
1427.83	1206
1425.74	1181.68
1423.65	1128.81
1421.56	1133.1
1419.47	1125.5
1417.37	1201.15
1415.28	1271.98
1413.18	1254.82
1411.09	1202.04
1408.99	1227.66
1406.89	1129.84
1404.79	1221.91
1402.7	1211.92
1400.59	1235.13
1398.49	1156.42
1396.39	1212.79
1394.29	1188.61
1392.18	1150.25
1390.08	1123.75
1387.97	1187.14
1385.87	1115.74
1383.76	1143.63
1381.65	1133.71
1379.54	1173.38
1377.43	1165.81
1375.32	1129.95
1373.21	1094.11
1371.1	1159.66
1368.98	1168.6
1366.87	1090.4
1364.75	1155.87
1362.64	1122.44
1360.52	1143.15
1358.4	1142.68
1356.28	1142.2
1354.17	1137.03
1352.04	1181.18
1349.92	1021.08
1347.8	1180.2
1345.68	1111.7
1343.55	1104.21
1341.43	1115.47
1339.3	1112.66
1337.18	1065.37
1335.05	1111.74
1332.92	1162.75
1330.79	1143.56
1328.66	1061.27
1326.53	1072.51
1324.4	1076.74
1322.27	1087.97
1320.13	1152.86
1318	1101.06
1315.86	1095.94
1313.73	1025.56
1311.59	1120.66
1309.45	1115.54
1307.31	1122.06
1305.17	1079.71
1303.03	1076.93
1300.89	1139.26
1298.75	1031.88
1296.6	1054.69
1294.46	1065.86
1292.31	1083.98
1290.17	1034.81
1288.02	1127.15
1285.87	1133.64
1283.72	1052.06
1281.57	1053.94
1279.42	1106.75
1277.27	1069.26
1275.12	1061.88
1272.96	1012.87
1270.81	1065.62
1268.66	1060.55
1266.5	1067.04
1264.34	1138.16
1262.19	1073.07
1260.03	1033.41
1257.87	1016.84
1255.71	1009.5
1253.54	1011.39
1251.38	1027.08
1249.22	1038.17
1247.06	1049.24
1244.89	1018.9
1242.72	1039.17
1240.56	999.666
1238.39	1040.6
1236.22	978.166
1234.05	1046.61
1231.88	972.761
1229.71	997.581
1227.54	1036.13
1225.37	985.292
1223.19	1062.75
1221.02	1041.71
1218.84	974.903
1216.66	999.659
1214.49	1033.54
1212.31	978.253
1210.13	920.727
1207.95	1087.05
1205.77	986.157
1203.58	1015.41
1201.4	937.434
1199.22	1012.28
1197.03	984.508
1194.85	977.262
1192.66	1020.12
1190.47	1026.52
1188.28	985.135
1186.09	986.997
1183.9	950.211
1181.71	1063.43
1179.52	990.299
1177.33	1046.64
1175.13	989.469
1172.94	948.222
1170.74	972.767
1168.54	1031.29
1166.35	999.138
1164.15	996.455
1161.95	968.872
1159.75	993.356
1157.54	1072.1
1155.34	1024.17
1153.14	987.585
1150.93	946.509
1148.73	928.047
1146.52	993.112
1144.32	985.927
1142.11	1030.62
1139.9	985.098
1137.69	1018.48
1135.48	1058.6
1133.27	1006.37
1131.05	1008.2
1128.84	969.532
1126.63	1034.33
1124.41	1004.68
1122.19	970.555
1119.98	1006.08
1117.76	1001.16
1115.54	962.598
1113.32	1016.02
1111.1	990.932
1108.88	963.623
1106.65	983.377
1104.43	1041.18
1102.2	964.643
1099.98	968.711
1097.75	950.413
1095.52	965.659
1093.3	996.533
1091.07	976.012
1088.84	973.367
1086.6	964.03
1084.37	1003.77
1082.14	969.906
1079.9	991.783
1077.67	991.365
1075.43	1008.76
1073.2	1001.66
1070.96	1030.16
1068.72	967.45
1066.48	949.257
1064.24	1011.08
1062	1023.98
1059.75	1070.17
1057.51	1003.14
1055.27	1013.8
1053.02	1004.5
1050.77	992.997
1048.53	983.714
1046.28	1085.17
1044.03	1082.5
1041.78	1042.21
1039.53	1070.52
1037.27	1196.09
1035.02	1286.19
1032.77	1360.75
1030.51	1388.88
1028.26	1408.16
1026	1425.21
1023.74	1448.86
1021.48	1567.28
1019.22	1518.14
1016.96	1574.76
1014.7	1670.96
1012.44	1848.5
1010.17	1810.32
1007.91	1948.07
1005.64	2142.85
1003.38	2152.92
1001.11	2422.11
998.84	2511.07
996.57	2556.08
994.3	2728.25
992.028	2961.66
989.756	3560.81
987.482	3909.75
985.208	4306.56
982.933	4390.07
980.656	4644.15
978.379	4718.7
976.101	4812.87
973.821	4917.87
971.541	4902.67
969.26	5123.24
966.979	5062.15
964.695	5214.84
962.411	5443.71
960.126	5238.73
957.84	5447.79
955.553	5600.06
953.265	5732.61
950.977	6002.09
948.687	6101.74
946.396	6318.67
944.104	6287.73
941.811	6695.51
939.517	6961.83
937.222	6722.34
934.926	6378.95
932.63	5814.7
930.332	4917.19
928.033	3808.17
925.733	2866.82
923.433	2283.38
921.131	2046.59
918.828	1976.52
916.524	1906.51
914.22	1782.53
911.914	1775.29
909.607	1657.96
907.301	1732.77
904.992	1732.03
902.683	1657.99
900.372	1737.02
898.061	1703.96
895.748	1653.71
893.435	1601.34
891.119	1643.68
888.804	1591.37
886.487	1575.64
884.17	1566.37
881.852	1709.6
879.532	1558.59
877.212	1583.67
874.891	1638.76
872.567	1524.42
870.244	1570.92
867.92	1531.68
865.595	1531.03
863.268	1545.35
860.94	1497.62
858.612	1544.03
856.282	1481.37
853.952	1512.79
851.621	1445.93
849.288	1492.27
846.955	1468.16
844.62	1497.39
842.285	1454.1
839.948	1513.15
837.611	1467.77
835.272	1433.06
832.934	1545.26
830.593	1510.55
828.251	1486.51
825.908	1566.65
823.565	1508.6
821.221	1486.71
818.875	1498.81
816.528	1508.78
814.181	1440.25
811.832	1482.03
809.482	1483.51
807.132	1402.38
804.78	1448.36
802.428	1485.83
800.074	1425.95
797.72	1366.12
795.364	1412.04
793.008	1377.62
790.649	1368.58
788.291	1302.55
785.932	1327.31
783.57	1229.71
781.209	1330.38
778.846	1312.94
776.482	1259.71
774.117	1311.81
771.752	1264.94
769.385	1228.63
767.017	1207.07
764.647	1273.81
762.278	1308.98
759.907	1262.21
757.535	1276.36
755.162	1177.18
752.788	1250.08
750.413	1174.07
748.037	1192.42
745.659	1206.57
743.281	1185.1
740.902	1199.24
738.522	1144.33
736.141	1152.2
733.759	1111.99
731.375	1190.9
728.991	1177.85
726.605	1118.89
724.219	1122.58
721.831	1161.72
719.443	1202.91
717.054	1127.37
714.663	1131.05
712.271	1199.26
709.879	1142.55
707.485	1177.42
705.09	1214.34
702.694	1259.54
700.298	1275.61
697.899	1252.21
695.501	1307.71
693.101	1309.22
690.7	1300.35
688.298	1403.44
685.895	1450.49
683.491	1408.43
681.086	1428.52
678.68	1467.22
676.272	1565.87
673.864	1521.77
671.454	1585.18
669.044	1654.73
666.633	1596.19
664.22	1589.3
661.807	1499.89
659.392	1472.43
656.977	1607.84
654.56	1483.51
652.142	1534.35
649.723	1471.92
647.304	1432.19
644.882	1501.49
642.46	1422.71
640.037	1413.87
637.613	1485.15
635.188	1451.65
632.762	1514.64
630.335	1546.8
627.906	1570.73
625.477	1668.43
623.046	1665.65
620.615	1720.22
618.183	1678.53
615.749	1643.01
613.313	1660.7
610.878	1469.85
608.441	1510.08
606.003	1409.33
603.564	1425.05
601.124	1348.92
598.684	1354.45
596.241	1337.54
593.798	1294.16
591.354	1220.26
588.908	1219.72
586.462	1221.22
584.014	1232.89
581.565	1191.68
579.116	1258.24
576.665	1221.12
574.213	1179.96
571.761	1254.56
569.307	1272.27
566.852	1330.53
564.396	1386.71
561.938	1463.11
559.479	1553.62
557.021	1552.93
554.56	1665.59
552.099	1749.82
549.636	1838.02
547.172	2013.05
544.707	2361.67
542.241	2544.39
539.774	2914.67
537.307	3462.17
534.837	4337.91
532.367	5652.33
529.896	7612.38
527.424	12076.2
524.95	24791.9
522.476	83158.8
520	224838
517.523	138857
515.045	36731.6
512.566	15256.2
510.086	8866.61
507.605	6155.33
505.123	4583.87
502.64	3619.36
500.155	3052.55
497.67	2608.45
495.184	2310.92
492.695	2087.72
490.207	2032.78
487.717	1937.89
485.226	1873.07
482.734	1754.35
480.241	1587.8
477.746	1559.15
475.251	1456.7
472.755	1462.04
470.257	1445.44
467.759	1375.05
465.259	1316.68
462.758	1242.43
460.256	1249.84
457.753	1225.42
455.248	1308.39
452.743	1429.05
450.236	1539.67
447.729	1596.58
445.221	1665.34
442.711	1749.92
440.2	1798.72
437.688	1916.86
435.175	2137.93
432.66	2016.17
430.146	2106.34
427.629	2073.75
425.111	1973.94
422.593	1945.38
420.073	1974.16
417.552	2006.87
415.03	1917.13
412.507	1987.33
409.982	1907.54
407.457	1918.52
404.931	1888.11
402.403	1790.74
399.874	1949.44
397.345	1950.55
394.813	1935.91
392.281	2001.91
389.748	1942.05
387.214	1990.31
384.678	2036.56
382.142	2065.1
379.604	2079.88
377.064	2131.91
374.525	2123.12
371.983	2155.48
369.441	2103.6
366.898	2186.85
364.354	2225.01
361.808	2118.4
359.261	2264.09
356.713	2268.94
354.164	2303.1
351.614	2356.74
349.062	2396.68
346.51	2401.46
343.956	2478.39
341.401	2487.03
338.846	2624.24
336.289	2628.91
333.73	2649.15
331.171	2780.27
328.61	2901.55
326.049	3046.04
323.486	3196.24
320.923	3307.45
318.357	3579.7
315.791	3869.16
313.224	4135.08
310.655	4408.53
308.086	5003.4
305.515	6081.97
302.943	7341.57
300.37	7202.82
297.796	5638.59
295.221	4350.31
292.644	3842.02
290.066	3494.52
287.487	3203.32
284.907	3006.96
282.326	2914.94
279.744	2718.88
277.16	2686.82
274.575	2618.19
271.99	2453.33
269.402	2469.56
266.814	2362.63
264.226	2350.03
261.635	2285.54
259.043	2215.35
256.45	2214.36
253.856	2132.74
251.262	2131.78
248.665	2096.3
246.068	2158.62
243.47	2081
240.869	2007.29
238.269	1977.67
235.667	1963.38
233.063	1960.59
230.459	1971.18
227.854	1849.9
225.246	1818.5
222.639	1575.2
220.029	1538.23
217.419	1396.37
214.808	1370.96
212.195	1261.7
209.581	1156.36
206.966	1237.72
204.35	1246.68
201.732	1149.09
200.424	1154.54