File: Finalized Code/RAMAN Data MITACs/TULSI/PMMA on Si substrate/Si-hydrophilic-with PMMA-1.txt
#Wave		#Intensity
1800.53	29686.5
1799.56	29586.3
1798.59	29968.2
1797.62	29826.1
1796.65	29725.2
1795.68	29811.6
1794.71	30018.6
1793.74	30335.9
1792.77	30078.5
1791.8	29941.7
1790.83	29869
1789.86	29906.6
1788.89	30295.3
1787.92	30353.3
1786.94	30442.1
1785.97	30533.3
1785	29953.5
1784.03	30060.2
1783.05	30264.1
1782.08	29940.7
1781.11	30507.9
1780.13	30379
1779.16	30493.1
1778.19	30492.2
1777.21	30450.2
1776.24	30257.5
1775.27	30346
1774.29	30544.4
1773.32	30591.9
1772.34	30519.4
1771.37	30490.3
1770.39	30691
1769.42	30296.8
1768.44	30456.7
1767.46	30164.8
1766.49	30620.5
1765.51	30976.6
1764.54	30909.2
1763.56	30209.4
1762.58	30700.5
1761.61	30299.3
1760.63	30711.1
1759.65	30901.1
1758.67	30798.2
1757.7	30817.4
1756.72	30918.2
1755.74	31069.8
1754.76	31073.8
1753.78	31207.5
1752.8	31252.1
1751.83	30945.7
1750.85	30990.4
1749.87	31332.5
1748.89	31216.9
1747.91	31523.3
1746.93	31298.4
1745.95	31297.2
1744.97	31075
1743.99	31414.2
1743.01	31397.7
1742.03	31706.2
1741.04	31613.5
1740.06	31467.6
1739.08	31712.4
1738.1	31759.3
1737.12	31514.6
1736.14	31744.1
1735.15	31616
1734.17	31270
1733.19	31562.8
1732.21	32012.4
1731.22	31433.6
1730.24	31936.3
1729.26	31750.1
1728.27	31741.2
1727.29	32015.7
1726.3	31809.4
1725.32	31689.2
1724.34	31991.4
1723.35	31916.7
1722.37	32592.9
1721.38	32384.1
1720.4	32104.7
1719.41	32707.2
1718.42	32463.1
1717.44	32769.8
1716.45	32429.9
1715.47	32673.3
1714.48	32575.8
1713.49	32657.6
1712.51	32529.9
1711.52	32964.9
1710.53	32622.8
1709.54	32825.5
1708.56	32642.4
1707.57	33140
1706.58	32561.2
1705.59	32836.9
1704.61	33009.1
1703.62	33110.8
1702.63	32937.9
1701.64	33455
1700.65	32932.2
1699.66	33464.2
1698.67	33296.4
1697.68	33521.1
1696.69	33584.8
1695.7	33711.3
1694.71	33717.1
1693.72	33486.6
1692.73	34020.2
1691.74	33857.5
1690.75	34287.8
1689.75	33987
1688.76	33849.6
1687.77	34242
1686.78	34265.2
1685.79	34316
1684.79	34191.2
1683.8	34209.3
1682.81	34162.3
1681.82	34473.9
1680.82	34301.5
1679.83	34540.2
1678.84	34475.6
1677.84	34719.2
1676.85	34709.7
1675.85	35431.5
1674.86	35269.1
1673.87	35299.5
1672.87	34917
1671.88	35447.9
1670.88	35423.3
1669.89	35796.4
1668.89	35539
1667.89	35544.4
1666.9	35807.2
1665.9	35967.4
1664.91	36212.5
1663.91	36050.3
1662.91	36287.9
1661.92	36710.1
1660.92	36982.3
1659.92	37289.4
1658.92	37064.7
1657.92	37536.4
1656.93	38137.5
1655.93	38336.9
1654.93	38413.9
1653.93	38730.3
1652.93	38832.2
1651.93	39597
1650.93	39755.9
1649.93	40056.8
1648.94	40527
1647.94	40932.2
1646.94	41812.8
1645.94	42240
1644.93	42731.7
1643.93	43253.1
1642.93	44458.4
1641.93	44750.4
1640.93	45984.8
1639.93	46699
1638.93	47452.7
1637.93	48295.6
1636.92	49461.2
1635.92	49948
1634.92	51038.3
1633.92	51847.5
1632.91	52656.3
1631.91	53325.8
1630.91	54332.6
1629.9	55214.9
1628.9	55578.3
1627.9	56576.5
1626.89	57472.7
1625.89	58552
1624.88	59430
1623.88	59891.3
1622.87	60159.2
1621.87	61229.6
1620.86	62034.5
1619.86	62623.7
1618.85	63824.2
1617.85	64358.3
1616.84	65285.7
1615.83	67066.3
1614.83	68071.9
1613.82	69514.9
1612.81	71182.3
1611.81	73393
1610.8	74633.8
1609.79	76689.6
1608.78	78623.5
1607.78	80645.6
1606.77	82266.7
1605.76	84640.3
1604.75	85595.8
1603.74	87158.2
1602.73	88135
1601.72	90226.7
1600.71	91027.3
1599.7	92607
1598.69	93552.4
1597.68	95128.4
1596.67	96573.2
1595.66	97085.9
1594.65	98578.9
1593.64	98906.2
1592.63	100122
1591.62	100710
1590.61	100702
1589.6	101516
1588.58	101427
1587.57	102853
1586.56	103361
1585.55	104250
1584.54	104801
1583.52	104451
1582.51	104928
1581.5	104873
1580.48	105768
1579.47	106210
1578.46	106356
1577.44	107643
1576.43	109032
1575.41	109607
1574.4	111373
1573.38	113328
1572.37	114708
1571.35	116399
1570.34	117321
1569.32	119612
1568.3	121175
1567.29	122432
1566.27	124441
1565.25	125961
1564.24	127708
1563.22	128845
1562.2	131215
1561.19	132312
1560.17	134602
1559.15	135375
1558.13	136636
1557.12	138479
1556.1	138517
1555.08	140366
1554.06	141852
1553.04	142732
1552.02	143194
1551	144296
1549.98	143930
1548.96	143922
1547.94	144562
1546.92	144623
1545.9	144166
1544.88	144354
1543.86	144388
1542.84	145002
1541.82	144339
1540.79	144214
1539.77	143824
1538.75	143330
1537.73	143312
1536.71	142258
1535.68	141713
1534.66	141246
1533.64	140572
1532.61	140241
1531.59	139751
1530.57	139579
1529.54	140499
1528.52	140015
1527.49	139449
1526.47	139559
1525.45	139055
1524.42	138550
1523.4	137912
1522.37	137299
1521.34	135697
1520.32	135403
1519.29	134705
1518.27	133406
1517.24	132348
1516.21	131414
1515.19	130094
1514.16	128228
1513.13	127406
1512.1	125953
1511.08	124483
1510.05	122985
1509.02	121729
1507.99	121070
1506.96	119518
1505.94	118174
1504.91	117022
1503.88	114680
1502.85	113380
1501.82	111886
1500.79	108855
1499.76	107479
1498.73	106224
1497.7	104576
1496.67	102716
1495.64	100111
1494.61	99819.6
1493.58	98451.9
1492.54	97000.2
1491.51	96343.1
1490.48	94981.7
1489.45	94055.2
1488.42	93821.2
1487.38	93382.4
1486.35	92420.5
1485.32	92809
1484.28	93161.2
1483.25	92421.6
1482.22	92609.9
1481.18	92634.3
1480.15	91825.4
1479.12	91416.6
1478.08	91099.4
1477.05	90775
1476.01	90280
1474.98	90795.6
1473.94	90303.2
1472.91	90027.4
1471.87	90148.3
1470.83	91069.7
1469.8	90214.7
1468.76	90571.1
1467.73	90833.6
1466.69	90509.9
1465.65	90952.4
1464.61	90664.9
1463.58	90951.1
1462.54	91292.4
1461.5	90995.4
1460.46	90676.9
1459.42	90044.3
1458.39	89095.5
1457.35	88240.5
1456.31	87031.2
1455.27	85999.7
1454.23	84587.6
1453.19	83710.4
1452.15	82263.4
1451.11	81300.8
1450.07	80664.1
1449.03	79099
1447.99	78611.4
1446.95	77980.4
1445.91	76534
1444.87	75743.5
1443.83	75625.1
1442.78	75124.3
1441.74	74566.3
1440.7	74340.8
1439.66	74688.6
1438.62	74133.5
1437.57	73280
1436.53	73895.3
1435.49	72796.4
1434.44	72554.7
1433.4	71470.9
1432.36	71294
1431.31	70303.8
1430.27	69824.4
1429.22	68460.6
1428.18	68234.4
1427.13	67460.2
1426.09	66641
1425.04	66901.2
1424	66196.8
1422.95	64902.2
1421.91	64707.9
1420.86	64156.6
1419.81	63067.8
1418.77	63045.4
1417.72	62085.7
1416.67	61176.3
1415.63	60745.2
1414.58	60559.2
1413.53	60050
1412.48	59883.2
1411.44	60008.7
1410.39	60077.1
1409.34	60157.3
1408.29	60721.9
1407.24	60410.3
1406.19	60673.1
1405.14	60663
1404.09	60581.7
1403.04	60189.7
1401.99	60872.1
1400.94	60992.3
1399.89	61354.3
1398.84	61379.6
1397.79	61222.4
1396.74	61032.1
1395.69	61090.6
1394.64	60758.3
1393.58	60516.1
1392.53	60962.8
1391.48	60872.2
1390.43	61093.9
1389.38	61272.9
1388.32	61853.8
1387.27	61791.4
1386.22	62081.3
1385.16	61799
1384.11	62086.4
1383.05	61946
1382	61340.3
1380.95	60305.1
1379.89	60120.3
1378.84	58861.5
1377.78	58504.8
1376.73	58063.2
1375.67	57744.6
1374.62	57442.5
1373.56	56848.2
1372.5	56310.7
1371.45	55881.8
1370.39	55611.1
1369.33	55441.7
1368.28	55074.5
1367.22	55082
1366.16	54851.6
1365.1	54579
1364.05	53934.5
1362.99	54243.4
1361.93	54175.8
1360.87	54117.5
1359.81	53690
1358.75	53500.2
1357.69	53228.2
1356.63	53407.6
1355.58	53427.1
1354.52	53169.4
1353.46	53001
1352.4	53187.3
1351.33	53375.9
1350.27	53040.9
1349.21	53229.4
1348.15	53049.5
1347.09	52796.8
1346.03	52671
1344.97	53025.9
1343.91	52759.4
1342.84	52249.2
1341.78	52463.3
1340.72	52487.6
1339.66	52668.9
1338.59	52465.9
1337.53	52588.5
1336.46	52694.7
1335.4	52861.7
1334.34	52801.6
1333.27	53165
1332.21	52915.4
1331.14	53617.7
1330.08	53211.4
1329.01	52592.6
1327.95	52930
1326.88	53045.2
1325.82	53155.7
1324.75	53576.8
1323.68	53815.6
1322.62	53141.3
1321.55	53727.9
1320.48	54430.9
1319.42	54349.6
1318.35	55161.9
1317.28	55274.1
1316.21	55861.9
1315.15	56067.1
1314.08	56803.8
1313.01	57146.2
1311.94	57316.1
1310.87	58068.3
1309.8	58065.6
1308.73	58828.9
1307.67	59314.9
1306.59	59267.7
1305.53	59948.9
1304.46	60134.2
1303.38	60684.6
1302.31	61369.7
1301.24	61510.5
1300.17	62109.1
1299.1	63190.9
1298.03	63468.2
1296.96	63833.7
1295.88	64645.1
1294.81	64729.2
1293.74	65584.1
1292.67	65674.9
1291.59	65951.4
1290.52	65684.8
1289.45	65958.8
1288.38	66255.9
1287.3	66109.9
1286.23	66441.6
1285.15	66599.3
1284.08	66840.4
1283	67123.1
1281.93	66374.8
1280.85	66300.8
1279.78	66449.1
1278.7	66240.8
1277.63	66203.9
1276.55	66511.7
1275.47	66650.6
1274.4	66565
1273.32	66708.4
1272.25	66646
1271.17	66338.5
1270.09	66449.5
1269.01	65830.3
1267.93	65867.4
1266.86	65382.5
1265.78	65082.6
1264.7	64944.3
1263.62	65159.3
1262.54	64418.8
1261.46	64518.4
1260.38	64751.8
1259.3	64927.5
1258.22	64471.2
1257.14	64923.5
1256.06	64813.1
1254.98	64903.3
1253.9	64311.5
1252.82	64111.5
1251.74	64234
1250.66	63746.3
1249.58	63698.5
1248.5	63570.1
1247.41	63197.9
1246.33	62980
1245.25	62798.9
1244.17	62549
1243.08	62379.6
1242	62322.9
1240.92	62627.1
1239.83	62165.9
1238.75	62286.2
1237.67	62064.2
1236.58	61936.4
1235.5	62141.6
1234.41	61832.5
1233.33	61372.1
1232.24	60987.6
1231.16	60635.4
1230.07	60345.2
1228.98	59445.3
1227.9	59751.5
1226.81	59498.4
1225.72	59062
1224.64	59253.6
1223.55	59413
1222.46	59224.2
1221.38	59182.1
1220.29	59380.3
1219.2	59459.5
1218.11	59746.8
1217.02	59299.7
1215.93	59204.9
1214.85	59574.4
1213.76	59413.4
1212.67	60082.1
1211.58	59815.9
1210.49	60751.6
1209.4	60638.4
1208.31	60801.6
1207.22	61978.5
1206.13	61561.5
1205.04	61911.5
1203.94	61946.5
1202.85	61584.4
1201.76	61687.9
1200.67	62208.6
1199.58	62088.4
1198.49	62013.9
1197.39	62377
1196.3	62081.4
1195.21	62975.1
1194.11	63080.3
1193.02	63718.4
1191.93	63873.6
1190.83	64172
1189.74	65221.4
1188.64	65808.4
1187.55	66342.8
1186.46	67238.7
1185.36	67888.6
1184.26	68244.9
1183.17	68744.3
1182.07	70261.5
1180.98	70882.9
1179.88	71953.9
1178.79	74073.5
1177.69	75390.8
1176.59	77241
1175.49	78341.4
1174.4	80006.4
1173.3	81888.5
1172.2	82649.3
1171.1	83310
1170	84346.8
1168.91	85893.1
1167.81	87595.2
1166.71	88496.7
1165.61	90387.8
1164.51	90950.9
1163.41	93191.6
1162.31	93681.5
1161.21	95314.1
1160.11	95739.9
1159.01	95939.2
1157.91	96258.4
1156.81	95168.5
1155.71	94569.7
1154.61	93889.8
1153.5	92667.7
1152.4	91767
1151.3	90631.7
1150.2	89655
1149.09	89040
1147.99	88027.9
1146.89	86959.8
1145.79	86201.3
1144.68	84439.1
1143.58	83870.9
1142.47	82908.3
1141.37	82588.8
1140.26	82497
1139.16	81695.3
1138.05	80979.6
1136.95	80268.6
1135.84	79346.2
1134.74	78392.7
1133.63	77417.1
1132.53	75545.9
1131.42	74006.4
1130.31	72422.5
1129.21	71471.4
1128.1	69546.8
1126.99	68302.1
1125.88	67282.8
1124.78	66454.9
1123.67	65609.5
1122.56	64975.5
1121.45	63535.4
1120.34	62369.9
1119.23	61472.1
1118.12	60303
1117.02	58910
1115.91	57490.6
1114.8	57285.6
1113.69	55452.2
1112.58	55106.4
1111.47	55103.7
1110.35	54177.5
1109.24	54222.1
1108.13	52964.9
1107.02	52660.3
1105.91	51777.9
1104.8	51661.8
1103.68	51180.7
1102.57	50037.4
1101.46	50273
1100.35	50143.8
1099.23	49849.2
1098.12	48805.4
1097.01	48238.4
1095.89	47644.7
1094.78	47417.9
1093.66	46552.1
1092.55	46006.1
1091.44	45938.3
1090.32	45776.8
1089.21	45278.1
1088.09	45114.6
1086.97	44779.2
1085.86	44861.2
1084.74	44267.3
1083.62	44449.8
1082.51	44716.9
1081.39	44431
1080.27	45513.8
1079.16	45871.9
1078.04	46176.3
1076.92	46061.9
1075.8	46243.7
1074.68	46184.9
1073.57	46306.5
1072.45	46343.4
1071.33	46874.4
1070.21	46372.8
1069.09	46460.9
1067.97	46386.6
1066.85	46190
1065.73	45860.2
1064.61	45981.6
1063.49	45303.1
1062.37	45226.9
1061.25	44842
1060.12	44215.2
1059	43431.1
1057.88	43357.6
1056.76	43055.5
1055.64	42471.8
1054.51	41981.5
1053.39	42203.2
1052.27	41427.2
1051.15	41560.3
1050.02	41544.8
1048.9	41680
1047.77	41290.2
1046.65	41037.8
1045.53	41407.8
1044.4	41461
1043.28	41328.3
1042.15	41551.9
1041.02	41815.2
1039.9	42244.3
1038.77	41872.7
1037.65	41837.3
1036.52	41492.4
1035.39	40427.2
1034.27	40056.3
1033.14	39599.3
1032.01	39160.2
1030.88	38734.6
1029.76	38850
1028.63	38504.1
1027.5	38056.7
1026.37	37945
1025.24	38053.8
1024.11	37838.5
1022.99	38167.8
1021.86	37754.1
1020.73	37801.2
1019.6	38044.4
1018.47	37688.2
1017.33	37874
1016.2	38013.5
1015.07	37833.7
1013.94	38050.2
1012.81	38319.5
1011.68	38445.5
1010.55	38521
1009.42	38893.3
1008.28	38460.6
1007.15	39107.6
1006.02	38903.7
1004.88	39145.9
1003.75	39711
1002.62	40058.5
1001.48	40873.5
1000.35	41835.3
999.215	42050.3
998.08	42039.1
996.945	42012.7
995.811	41780
994.675	41139.4
993.54	41097.8
992.404	42172.1
991.268	42160.9
990.132	42811.6
988.995	43354.6
987.858	43695.9
986.722	44794.7
985.584	45030.4
984.446	45382
983.309	46074.9
982.171	45966.7
981.033	46320.1
979.895	46417.4
978.756	47026.4
977.617	46697.1
976.478	46643.5
975.338	46784.4
974.198	46866.2
973.059	46781.9
971.919	47368.2
970.778	47515.3
969.638	47452.8
968.497	47650.1
967.355	47463.2
966.215	48079.2
965.073	48287.1
963.931	48582.1
962.789	49014.3
961.646	49139
960.504	49745.3
959.361	50314.3
958.218	50257.8
957.075	50475.8
955.932	50841.7
954.788	51022.5
953.644	51951.9
952.499	52369.5
951.354	52843.5
950.21	53626.1
949.065	53719.1
947.92	54044.6
946.774	55028.7
945.629	55071.3
944.482	55587.5
943.337	55836.4
942.19	56491.2
941.043	56270.7
939.896	56425.9
938.749	55912.4
937.602	55106.3
936.454	54241.9
935.306	53421.2
934.158	52893.7
933.01	51926.2
931.861	50805.2
930.712	49834.3
929.562	48421.7
928.413	47323.9
927.264	45719.7
926.114	44934.7
924.964	43998.5
923.813	43136.3
922.663	42594.7
921.512	42194
920.36	41810.8
919.209	42063.5
918.058	41594
916.906	41122.5
915.754	41029.4
914.602	41109.2
913.449	40944.9
912.296	40797.9
911.143	40100.3
909.989	39517.5
908.836	39111.8
907.683	38766.8
906.528	38266.6
905.374	38034.1
904.219	37547.2
903.064	37521.9
901.909	37240.1
900.754	36949.8
899.599	36804
898.442	36722.8
897.286	36603
896.13	36498.2
894.974	36249.3
893.817	36026.3
892.66	36595.3
891.503	36675.7
890.345	36334.4
889.188	36401.9
888.029	36267.2
886.871	36530.3
885.712	36550.4
884.554	36312.7
883.395	36176
882.235	36774
881.076	36684.5
879.916	36646.6
878.756	36894.1
877.596	36622.3
876.436	36921.2
875.274	37599.8
874.113	37638.9
872.952	37937.4
871.791	38435.2
870.629	37730.4
869.467	37452.3
868.305	37251.5
867.142	37232.8
865.979	37209.8
864.816	36827.1
863.653	36755
862.489	36755.7
861.326	36456.8
860.162	36633
858.997	36614.4
857.833	36305
856.668	36444.8
855.503	36631.4
854.338	36416.3
853.172	36865.7
852.007	36947.4
850.841	36704.6
849.674	36920.9
848.508	36678.2
847.341	37009.6
846.174	36675.2
845.007	36729.2
843.839	36250
842.672	36564.1
841.504	36517.9
840.335	36156.3
839.167	36779.2
837.998	36652
836.829	37059.5
835.659	37226.1
834.49	37015.9
833.32	37429.4
832.15	38159.8
830.979	38045.2
829.81	39077.2
828.639	39936.5
827.468	40161.8
826.296	41114.1
825.125	41292.3
823.953	40977.4
822.781	40856
821.608	40902.4
820.436	40893.6
819.264	41165.1
818.09	40510.9
816.917	39973.7
815.743	39553.5
814.569	39112.3
813.396	38817.5
812.221	38016.1
811.047	37077.3
809.872	36473.8
808.696	35821.7
807.521	35193.3
806.346	34757.8
805.17	34860.5
803.994	34581.9
802.817	34701.5
801.641	34914.1
800.464	34826.2
799.287	34894.8
798.109	34551
796.932	34116.5
795.754	33891.4
794.576	33983.4
793.397	33291.4
792.219	33187.1
791.04	33080.6
789.86	32290
788.682	32365.4
787.502	32170.6
786.322	32269.1
785.142	31998.4
783.961	32088.6
782.78	31590.3
781.6	31378.9
780.419	31157.1
779.237	31711
778.056	31554.5
776.873	31619.4
775.691	31454.6
774.509	31911
773.326	32091.5
772.143	32101.4
770.96	32182.9
769.776	32264.3
768.593	32532.9
767.408	32599.4
766.225	32787.9
765.04	32488.7
763.855	32225.2
762.67	32056.5
761.484	32034.8
760.299	31847.3
759.113	31976.9
757.928	32261.8
756.741	31858.1
755.555	31889
754.368	31861.1
753.181	31929.7
751.993	32442.9
750.806	31865.6
749.618	32091.4
748.43	32040.4
747.241	32138.2
746.053	31741.6
744.864	31971.4
743.675	32224.2
742.485	32472.6
741.296	32312.8
740.106	32680.4
738.916	32541.5
737.726	32572.1
736.535	32688.4
735.344	32164.9
734.152	31961.4
732.961	31578.3
731.77	31153.6
730.577	31370.4
729.386	30935.4
728.192	30868.2
727	30955.4
725.807	30852.7
724.614	30697.8
723.42	30849.7
722.227	30578.2
721.032	30911.4
719.838	31323.8
718.644	31375.4
717.449	31364.4
716.254	31955.6
715.059	32209
713.863	32562.3
712.667	32472
711.471	32623.1
710.274	32972
709.078	32937.8
707.881	32847.4
706.684	32765.4
705.486	32747.9
704.289	32863.4
703.091	32554.9
701.893	32481.3
700.694	32727.8
699.495	32552.4
698.297	32707.3
697.098	33117.5
695.897	33324.2
694.698	33777.7
693.498	33853.3
692.298	34335.6
691.098	34838.3
689.896	34795.5
688.695	35242
687.494	35711
686.293	36142.6
685.091	36132.6
683.889	36369.2
682.687	35870.5
681.483	35361.6
680.28	34921.3
679.077	35222.1
677.874	34333
676.671	34675.1
675.467	34653.1
674.263	34800.6
673.058	35146.6
671.854	34971.5
670.648	34916.4
669.443	35344.7
668.237	35516.7
667.031	35263.2
665.825	35507.4
664.619	34903.1
663.413	34307.4
662.206	33627.3
660.999	33254.8
659.792	32701
658.584	32617.6
657.376	32577.5
656.168	32729.1
654.96	32794.1
653.751	32725.2
652.542	32590.3
651.333	32694.4
650.123	32121.1
648.914	32346.7
647.704	32061.9
646.493	32227.7
645.283	32202.2
644.072	31806.4
642.861	32410.2
641.649	32039.2
640.438	32340.5
639.227	32467
638.015	32254.5
636.802	32533
635.589	33129.6
634.376	32779.5
633.163	32392.6
631.95	31852
630.736	31845.1
629.522	31891.4
628.308	31566.6
627.094	31959.5
625.879	31694.3
624.664	32066.5
623.448	32366.8
622.233	32144.7
621.018	32375.2
619.801	32343.6
618.585	32958.8
617.368	33262.7
616.151	33253.4
614.935	32806.3
613.717	31860.3
612.499	31922.9
611.281	31108.3
610.062	31475.6
608.845	31139.7
607.626	31216.6
606.407	30899.3
605.188	30574
603.968	30224.3
602.748	30189.1
601.528	29584.5
600.308	29365.8
599.087	29443
597.866	29365.2
596.646	29356.8
595.424	28865.1
594.202	28803.8
592.98	29003.3
591.758	29051.9
590.535	28805.2
589.312	28375.3
588.09	28232.7
586.866	28128.8
585.643	28240.7
584.419	28193.8
583.195	28295.5
581.971	28596.4
580.746	28309.5
579.521	28285
578.296	28563.3
577.07	28979.7
575.845	28942.9
574.619	29588.5
573.393	29364.8
572.166	29506.5
570.939	29532.5
569.713	29613.3
568.485	29722.5
567.258	29904.6
566.029	29743.9
564.802	29670.5
563.573	29605.2
562.345	29503.4
561.115	29539.5
559.887	30025.3
558.657	30559.4
557.428	30409
556.197	30742.4
554.967	30794.3
553.736	30941.4
552.506	31513.2
551.274	31417.2
550.043	31028.1
548.812	31508.6
547.58	31382.4
546.348	31494.7
545.115	31851.5
543.883	31826.3
542.649	32291.9
541.416	32611.9
540.183	33176
538.949	33735.8
537.715	33998.7
536.48	34993.9
535.246	36145.8
534.011	37188.4
532.775	38458.4
531.54	40265.9
530.305	42842.4
529.068	45995.9
527.833	50382.8
526.596	58301.8
525.359	72728.3
524.122	102442
522.885	168364
521.647	293389
520.409	444350
519.171	488359
517.933	370060
516.694	210349
515.455	120031
514.216	81724.7
512.977	64625.3
511.736	54910.4
510.497	49613.3
509.257	46388.3
508.016	43301.2
506.774	41748.5
505.534	40720.2
504.292	39265
503.051	38035.1
501.809	36904
500.566	36402.8
499.324	35589.1
498.081	35094.4
496.838	34475.7
495.595	34143.7
494.352	33976
493.107	33918.4
491.863	33880.9
490.619	34137.6
489.374	33674
488.129	33568.5
486.884	33145.2
485.639	32974
484.393	33124.6
483.146	33177.2
481.9	33056
480.653	33198.5
479.406	33297
478.159	33315.6
476.912	33176.6
475.664	33306.9
474.416	33116
473.168	33268.3
471.919	33510.2
470.67	33128
469.421	33485.4
468.172	33607.6
466.922	33632
465.672	33258.1
464.422	32868.3
463.172	32958.6
461.921	32577.1
460.67	32810.7
459.418	32761.7
458.167	32901.6
456.915	32594
455.663	32909
454.41	33665.1
453.157	33522.5
451.904	33761.5
450.651	33867.3
449.397	33851.9
448.145	33993.3
446.89	33952
445.636	34365.4
444.381	34736.8
443.126	35003
441.871	35066.6
440.615	34900.2
439.359	34973.8
438.104	35366.5
436.848	35461.7
435.591	35804.6
434.334	35648.1
433.076	36064
431.819	36394.7
430.562	36440.1
429.304	37397.9
428.045	37573.7
426.787	38020.4
425.528	37780.5
424.269	38021.3
423.01	37093.5
421.75	37024
420.49	37013.8
419.229	36863.4
417.969	36626.1
416.708	36633.7
415.447	36663.1
414.186	36793.2
412.924	36940.9
411.662	37128.1
410.4	36971.9
409.138	37474.5
407.875	37430.7
406.612	37897.5
405.349	37556
404.085	37246.2
402.821	37602.4
401.557	37515.2
400.293	37648.7