File: Finalized Code/RAMAN Data MITACs/TULSI/PMMA on Si substrate/Si-hydrophilic-with PMMA-2.txt
#Wave		#Intensity
1800.53	27849.9
1799.56	27824.2
1798.59	27923.9
1797.62	28057
1796.65	28041.1
1795.68	27514.5
1794.71	27701.4
1793.74	28265.5
1792.77	27744.2
1791.8	27597.6
1790.83	28217.7
1789.86	28050.6
1788.89	27660.5
1787.92	28218.8
1786.94	27903.1
1785.97	27871.9
1785	28237.7
1784.03	28219.2
1783.05	28052.3
1782.08	27921.3
1781.11	27928.5
1780.13	28104.5
1779.16	28035
1778.19	28341.4
1777.21	28310.1
1776.24	28023.2
1775.27	28045.8
1774.29	28408.1
1773.32	28558.3
1772.34	28407
1771.37	28368.1
1770.39	28472.2
1769.42	28257.1
1768.44	28200.4
1767.46	28378.5
1766.49	28472.3
1765.51	28377.3
1764.54	28514.5
1763.56	28304.8
1762.58	28189.5
1761.61	28535.6
1760.63	28639.4
1759.65	28493.6
1758.67	28775.7
1757.7	28245.3
1756.72	28736.1
1755.74	28908.6
1754.76	28185
1753.78	28413.5
1752.8	28878.5
1751.83	28877.8
1750.85	28798.2
1749.87	28746.7
1748.89	28624
1747.91	28620.8
1746.93	28823.4
1745.95	28934.5
1744.97	29159.8
1743.99	28879.7
1743.01	28752
1742.03	29223.5
1741.04	29243
1740.06	28960.5
1739.08	29033.4
1738.1	29108.7
1737.12	29359
1736.14	29256.8
1735.15	29248.4
1734.17	29260.2
1733.19	29039
1732.21	28914.1
1731.22	29280.6
1730.24	28998.7
1729.26	29040.9
1728.27	29095.9
1727.29	29307.7
1726.3	29144.9
1725.32	29518.5
1724.34	29370.9
1723.35	29410.6
1722.37	29713.1
1721.38	29742.5
1720.4	29365
1719.41	29417.2
1718.42	29431.5
1717.44	29410.5
1716.45	29530.8
1715.47	29287.5
1714.48	29513.9
1713.49	29321.2
1712.51	29830
1711.52	29566.7
1710.53	30002.2
1709.54	29862.5
1708.56	29680
1707.57	29686.6
1706.58	29597.5
1705.59	29873.7
1704.61	29749.3
1703.62	29360.5
1702.63	30004.2
1701.64	29545
1700.65	29629.7
1699.66	29462.7
1698.67	29668.1
1697.68	29752.7
1696.69	29565.6
1695.7	29871.4
1694.71	29334.9
1693.72	29668.4
1692.73	29534.2
1691.74	29789.6
1690.75	29542.4
1689.75	29639.4
1688.76	29693.7
1687.77	29343.8
1686.78	29558.8
1685.79	30012.1
1684.79	29880.6
1683.8	29854.5
1682.81	29740.6
1681.82	29935.2
1680.82	29904.1
1679.83	30108.6
1678.84	29774.3
1677.84	30269.4
1676.85	30173.1
1675.85	30462.5
1674.86	30421.3
1673.87	29957
1672.87	30634.3
1671.88	30625.6
1670.88	30807.1
1669.89	30578.2
1668.89	30674.6
1667.89	30881
1666.9	31007.2
1665.9	30996
1664.91	31179.6
1663.91	30886
1662.91	31371.9
1661.92	31038.4
1660.92	32100.8
1659.92	31445.2
1658.92	31586.1
1657.92	31916.6
1656.93	32000
1655.93	31811.4
1654.93	32076.9
1653.93	32327.2
1652.93	32163.6
1651.93	32603.3
1650.93	33147.4
1649.93	33138.2
1648.94	32957.1
1647.94	33513.3
1646.94	33202.7
1645.94	33534.6
1644.93	34165
1643.93	34041.1
1642.93	34392.5
1641.93	34728.8
1640.93	35055
1639.93	35383.6
1638.93	36000.3
1637.93	35968.2
1636.92	36298.9
1635.92	37459.2
1634.92	36686.6
1633.92	37550.8
1632.91	38019.9
1631.91	38305.1
1630.91	39297.6
1629.9	39458.3
1628.9	40288.9
1627.9	39764.8
1626.89	40885.1
1625.89	41655.3
1624.88	42375.6
1623.88	42899.9
1622.87	43131.5
1621.87	43913.1
1620.86	43743.2
1619.86	44105.8
1618.85	44886.6
1617.85	45513.7
1616.84	45502
1615.83	46024.7
1614.83	46945.6
1613.82	47687.9
1612.81	48301.4
1611.81	48800.9
1610.8	49364.5
1609.79	50261.4
1608.78	50851.6
1607.78	51705.9
1606.77	52900.7
1605.76	53270.3
1604.75	53926
1603.74	54391.5
1602.73	55614.3
1601.72	56572.7
1600.71	57284
1599.7	58803.9
1598.69	59748.7
1597.68	60325.8
1596.67	61925.5
1595.66	62883.9
1594.65	63625.1
1593.64	65203.4
1592.63	66522.6
1591.62	67516.1
1590.61	68588.1
1589.6	69945.1
1588.58	70619.9
1587.57	71018.9
1586.56	72487.7
1585.55	73078
1584.54	74508.9
1583.52	75098.5
1582.51	75506
1581.5	76412.1
1580.48	77981.2
1579.47	78090.6
1578.46	79454.9
1577.44	80114
1576.43	80829.2
1575.41	81725.8
1574.4	82352.1
1573.38	83719
1572.37	83996.3
1571.35	84952.8
1570.34	86146.7
1569.32	86668.5
1568.3	87687.5
1567.29	87846.1
1566.27	89315.3
1565.25	89581.2
1564.24	90527.8
1563.22	91474
1562.2	92390.5
1561.19	92332.5
1560.17	93290
1559.15	93151.1
1558.13	93530.9
1557.12	93974
1556.1	93947.5
1555.08	94383
1554.06	94549.5
1553.04	95104.5
1552.02	94826.1
1551	95058.4
1549.98	95683.7
1548.96	96052.4
1547.94	97223.9
1546.92	97401.8
1545.9	97933.3
1544.88	98886.7
1543.86	99800.6
1542.84	100841
1541.82	101783
1540.79	102616
1539.77	102385
1538.75	102825
1537.73	103712
1536.71	103850
1535.68	104576
1534.66	105195
1533.64	105607
1532.61	105317
1531.59	107527
1530.57	108291
1529.54	109655
1528.52	110831
1527.49	111968
1526.47	113078
1525.45	114598
1524.42	115424
1523.4	116610
1522.37	117364
1521.34	118032
1520.32	118947
1519.29	119435
1518.27	118680
1517.24	118556
1516.21	117860
1515.19	117509
1514.16	117451
1513.13	118164
1512.1	118913
1511.08	119441
1510.05	119833
1509.02	119973
1507.99	119823
1506.96	120382
1505.94	119568
1504.91	118731
1503.88	118102
1502.85	117792
1501.82	116280
1500.79	115338
1499.76	115706
1498.73	114428
1497.7	114049
1496.67	113412
1495.64	113268
1494.61	112472
1493.58	112599
1492.54	112091
1491.51	111464
1490.48	110915
1489.45	110166
1488.42	109218
1487.38	107486
1486.35	107172
1485.32	107760
1484.28	106513
1483.25	105571
1482.22	105747
1481.18	105297
1480.15	104634
1479.12	103905
1478.08	104014
1477.05	103032
1476.01	102426
1474.98	101857
1473.94	100994
1472.91	100464
1471.87	99676.2
1470.83	99425
1469.8	98277.6
1468.76	98142.1
1467.73	97485.4
1466.69	96956.2
1465.65	96957.9
1464.61	96009
1463.58	95634
1462.54	94844.1
1461.5	94954.2
1460.46	94104.7
1459.42	93562.6
1458.39	93485.9
1457.35	91992.3
1456.31	91328.7
1455.27	90368.2
1454.23	89808.2
1453.19	89016.1
1452.15	88102.1
1451.11	87152.6
1450.07	86727.8
1449.03	85360.1
1447.99	85160.7
1446.95	84475.7
1445.91	84281.4
1444.87	83864.7
1443.83	82836.1
1442.78	81984.9
1441.74	81889.1
1440.7	80892.6
1439.66	80601.3
1438.62	80111.8
1437.57	79880.4
1436.53	79140.6
1435.49	78720.9
1434.44	77611.7
1433.4	77519.4
1432.36	77064.6
1431.31	77275.3
1430.27	77614.7
1429.22	77152.9
1428.18	77170.4
1427.13	77433.4
1426.09	77836.8
1425.04	78244.8
1424	77973.9
1422.95	78750.7
1421.91	79198.8
1420.86	79306.2
1419.81	79537.4
1418.77	79651.9
1417.72	79804.4
1416.67	80166.1
1415.63	80059.2
1414.58	79743.2
1413.53	79840.9
1412.48	78736.1
1411.44	78677.2
1410.39	77147.9
1409.34	76709.3
1408.29	76449
1407.24	75661.8
1406.19	74049
1405.14	73495.1
1404.09	73264.1
1403.04	72950.1
1401.99	72154.9
1400.94	72161.4
1399.89	71933.2
1398.84	70885.1
1397.79	70707
1396.74	70446.1
1395.69	70050.2
1394.64	70040.5
1393.58	70108.9
1392.53	69914.6
1391.48	69315.7
1390.43	69526.1
1389.38	69802.8
1388.32	69790.7
1387.27	70346.2
1386.22	70785.5
1385.16	71411.5
1384.11	72287.6
1383.05	72801.9
1382	73363.2
1380.95	73744.8
1379.89	74164
1378.84	74422.5
1377.78	73498.5
1376.73	73613.1
1375.67	73064.8
1374.62	72410.5
1373.56	71973.4
1372.5	72036.4
1371.45	71081
1370.39	70062.3
1369.33	69923
1368.28	68865
1367.22	68292.5
1366.16	68052.4
1365.1	68280.8
1364.05	67664.1
1362.99	67949
1361.93	67466.8
1360.87	67450.5
1359.81	67239
1358.75	67034.6
1357.69	66820.9
1356.63	67352.4
1355.58	67063.5
1354.52	66429.4
1353.46	66913.7
1352.4	67158.1
1351.33	66545.5
1350.27	66721.9
1349.21	66628.3
1348.15	66600.4
1347.09	66614.8
1346.03	66842.6
1344.97	65595.3
1343.91	65443.4
1342.84	64928.2
1341.78	64635.9
1340.72	64603.8
1339.66	64393.6
1338.59	64539.5
1337.53	64235.8
1336.46	64061
1335.4	63844.1
1334.34	63360.5
1333.27	63827
1332.21	63930.7
1331.14	63393.6
1330.08	63174.7
1329.01	63103.2
1327.95	63169.6
1326.88	63289.7
1325.82	63393.4
1324.75	63576.4
1323.68	63673
1322.62	63970.4
1321.55	64188.2
1320.48	64363.9
1319.42	64581.6
1318.35	64134.3
1317.28	64167.6
1316.21	64308.2
1315.15	64726.2
1314.08	64901.6
1313.01	64899.8
1311.94	65177.6
1310.87	65061.5
1309.8	65933.1
1308.73	65877.5
1307.67	66715.9
1306.59	67128
1305.53	67865.7
1304.46	68901
1303.38	69135.5
1302.31	69679.4
1301.24	70281.1
1300.17	71135.9
1299.1	71441.9
1298.03	72242.7
1296.96	72741.1
1295.88	73453
1294.81	73026.7
1293.74	72858.3
1292.67	72943
1291.59	73111.2
1290.52	73277
1289.45	73062.2
1288.38	73313.8
1287.3	73555.9
1286.23	73355.2
1285.15	73893.9
1284.08	74460.2
1283	75114.4
1281.93	76310.3
1280.85	76171.7
1279.78	76301.7
1278.7	76966.4
1277.63	76232.9
1276.55	76265.7
1275.47	75983.7
1274.4	76153
1273.32	75584.4
1272.25	75265.8
1271.17	74822.4
1270.09	75028.8
1269.01	74317.6
1267.93	73662.2
1266.86	73686.1
1265.78	73483.7
1264.7	73424.6
1263.62	73370
1262.54	73421.7
1261.46	73004.9
1260.38	72173.1
1259.3	71786.7
1258.22	71635.7
1257.14	71242.7
1256.06	70962.8
1254.98	70427.2
1253.9	70398.7
1252.82	70305.7
1251.74	70459.2
1250.66	70619.5
1249.58	70708.3
1248.5	71361.1
1247.41	72374.8
1246.33	72532.2
1245.25	73462.5
1244.17	73628.8
1243.08	73553.7
1242	73952.1
1240.92	73803.4
1239.83	74261.3
1238.75	74126.4
1237.67	74175.2
1236.58	74795.8
1235.5	73609.4
1234.41	73924.5
1233.33	73922.9
1232.24	73223.7
1231.16	73469.9
1230.07	73727.5
1228.98	73698.4
1227.9	73552.3
1226.81	74151.2
1225.72	73507.8
1224.64	72965.5
1223.55	72986.9
1222.46	72651.1
1221.38	71935.3
1220.29	72211
1219.2	70916.5
1218.11	70384.6
1217.02	70205.2
1215.93	70730.3
1214.85	70713.2
1213.76	70810.5
1212.67	70557.9
1211.58	71157.9
1210.49	71577.2
1209.4	71893.4
1208.31	72581.8
1207.22	73982.4
1206.13	73782
1205.04	74465
1203.94	75227.6
1202.85	75401.2
1201.76	75433.3
1200.67	75932.9
1199.58	76464.3
1198.49	76831.2
1197.39	76940.5
1196.3	77017.8
1195.21	77514.3
1194.11	78703
1193.02	79394.7
1191.93	79794.7
1190.83	80476.8
1189.74	81390.7
1188.64	81521.6
1187.55	82164.2
1186.46	82322.1
1185.36	82982.5
1184.26	83551.6
1183.17	84661.5
1182.07	85461.9
1180.98	86343.6
1179.88	86189.3
1178.79	87415.7
1177.69	87828.8
1176.59	88888.7
1175.49	89662.1
1174.4	90389.8
1173.3	91053.8
1172.2	90860
1171.1	91630.1
1170	92304.7
1168.91	92706.9
1167.81	93650.6
1166.71	94399.1
1165.61	95373.7
1164.51	96024.1
1163.41	96441
1162.31	97333.1
1161.21	97668
1160.11	98914.8
1159.01	99192.6
1157.91	99427.4
1156.81	101010
1155.71	100930
1154.61	101761
1153.5	101853
1152.4	102731
1151.3	103382
1150.2	103810
1149.09	103678
1147.99	104098
1146.89	104521
1145.79	104321
1144.68	104597
1143.58	104117
1142.47	104711
1141.37	103545
1140.26	104078
1139.16	103423
1138.05	103622
1136.95	102852
1135.84	102919
1134.74	101757
1133.63	100435
1132.53	99904.8
1131.42	98697.7
1130.31	97464.1
1129.21	96568.5
1128.1	95007.5
1126.99	93982.3
1125.88	92615.9
1124.78	91398.3
1123.67	90477.9
1122.56	88551.3
1121.45	88069.9
1120.34	87070
1119.23	85632.5
1118.12	83872.5
1117.02	83480
1115.91	81781.7
1114.8	80629.2
1113.69	79407.7
1112.58	78034.3
1111.47	76798.1
1110.35	76055.7
1109.24	74105.5
1108.13	73805.4
1107.02	72459.1
1105.91	71404.6
1104.8	70720.1
1103.68	69574.6
1102.57	68969
1101.46	68659.1
1100.35	68275.4
1099.23	68379.6
1098.12	67613.7
1097.01	67150
1095.89	66496.5
1094.78	66730.6
1093.66	65829.4
1092.55	65556.4
1091.44	64780.9
1090.32	65019.6
1089.21	64420.9
1088.09	64467.6
1086.97	63782.2
1085.86	63617
1084.74	63770.9
1083.62	63217.7
1082.51	62943.5
1081.39	63028.3
1080.27	62382
1079.16	62342.1
1078.04	61455.5
1076.92	61135.2
1075.8	60541
1074.68	60069.6
1073.57	59057.4
1072.45	59024.9
1071.33	58665.3
1070.21	57827.5
1069.09	57552.9
1067.97	57176
1066.85	56459.2
1065.73	55744.8
1064.61	55428.6
1063.49	55381.3
1062.37	54669.9
1061.25	54809.3
1060.12	54919.9
1059	54584.1
1057.88	53700.3
1056.76	53376.1
1055.64	53382.6
1054.51	53668.5
1053.39	52998.5
1052.27	53111.5
1051.15	53040.4
1050.02	53022.5
1048.9	53188.5
1047.77	52612.4
1046.65	52942.3
1045.53	52351
1044.4	52592.3
1043.28	51779.9
1042.15	51452.5
1041.02	50932.7
1039.9	50534.8
1038.77	50391.4
1037.65	49591.4
1036.52	49249.3
1035.39	49015.7
1034.27	48806.4
1033.14	48588.4
1032.01	48266.7
1030.88	48165.9
1029.76	48350
1028.63	48410.4
1027.5	48018.4
1026.37	47635.3
1025.24	47267.8
1024.11	47542.3
1022.99	47172.8
1021.86	46841
1020.73	46775.9
1019.6	46384.8
1018.47	46086.4
1017.33	45900.4
1016.2	45291.6
1015.07	44749.2
1013.94	44748.5
1012.81	44928.3
1011.68	44978.2
1010.55	45109.4
1009.42	45390.2
1008.28	45481.7
1007.15	45276.4
1006.02	45737.1
1004.88	45305.5
1003.75	46073.6
1002.62	46628.3
1001.48	46886.3
1000.35	47403.3
999.215	47151.8
998.08	47969.2
996.945	47735.2
995.811	47931.2
994.675	48289.5
993.54	48415.2
992.404	48635.1
991.268	49085.1
990.132	49701.4
988.995	50236.4
987.858	50865.3
986.722	51599.1
985.584	51596.9
984.446	52144.1
983.309	52292.8
982.171	53756.5
981.033	54057.9
979.895	54107.7
978.756	54483.2
977.617	54808.3
976.478	55323.4
975.338	56028.5
974.198	56213.2
973.059	57096.8
971.919	58154.8
970.778	58839
969.638	59507.6
968.497	60520.7
967.355	61116.6
966.215	61633.8
965.073	61910.7
963.931	62283.5
962.789	61941.1
961.646	62982.9
960.504	62344
959.361	62744.7
958.218	62938.3
957.075	62633
955.932	62012.2
954.788	61378.5
953.644	61437.2
952.499	61130.4
951.354	61487.2
950.21	61374
949.065	61356.6
947.92	61687
946.774	62076
945.629	62551.8
944.482	62742.7
943.337	62820.5
942.19	63384.9
941.043	62850.2
939.896	62606.6
938.749	62673.6
937.602	61722.8
936.454	61605.4
935.306	60932.9
934.158	60028.6
933.01	58996.7
931.861	58110.5
930.712	56880.1
929.562	55721.7
928.413	54405.7
927.264	53629.5
926.114	51838
924.964	50569.1
923.813	49662.2
922.663	48887.7
921.512	48210.9
920.36	48274.1
919.209	47653.9
918.058	47250.2
916.906	47367.7
915.754	47536.9
914.602	48047.5
913.449	48179.8
912.296	47657.7
911.143	46947.8
909.989	46352.7
908.836	45949.9
907.683	45536.6
906.528	45091
905.374	44725.4
904.219	44595.1
903.064	45439.4
901.909	45496.5
900.754	46198
899.599	46399.3
898.442	46141.6
897.286	46551.7
896.13	47200.7
894.974	46785.8
893.817	47735.8
892.66	47714.9
891.503	48261.9
890.345	48178.4
889.188	48600.4
888.029	48893.1
886.871	49213.7
885.712	49579.3
884.554	49927.5
883.395	50136
882.235	49480.9
881.076	49818.1
879.916	48968
878.756	49219.4
877.596	48914.8
876.436	48966.6
875.274	47999.3
874.113	47714.5
872.952	47386.9
871.791	47016.6
870.629	46852.2
869.467	47133.6
868.305	46800
867.142	46706.4
865.979	46533.7
864.816	46590
863.653	46511.5
862.489	46448.1
861.326	46318.3
860.162	46216.3
858.997	46050.3
857.833	46397.5
856.668	45904.4
855.503	45806.9
854.338	45168.8
853.172	45481.7
852.007	45333.1
850.841	45372.5
849.674	45249.6
848.508	44994.4
847.341	44918.6
846.174	44778.8
845.007	45046.5
843.839	44661.4
842.672	45012.2
841.504	44416.3
840.335	44336.4
839.167	44505.9
837.998	44100
836.829	43639
835.659	43127
834.49	42889.9
833.32	43044.6
832.15	43035.4
830.979	43032.5
829.81	43131.7
828.639	43230.9
827.468	42341.3
826.296	41900.7
825.125	42123.3
823.953	41995.2
822.781	41824.7
821.608	41223.1
820.436	40770.4
819.264	40360.4
818.09	39672.4
816.917	40039.5
815.743	39729.6
814.569	39354.1
813.396	39322.3
812.221	38656.5
811.047	38908.9
809.872	38709.8
808.696	38676
807.521	38712.2
806.346	37975.2
805.17	37806.1
803.994	37012.5
802.817	37068
801.641	36272.7
800.464	36097.8
799.287	36483.4
798.109	36329.6
796.932	36093.5
795.754	36366.8
794.576	36549.2
793.397	36215.9
792.219	36903.1
791.04	37459.1
789.86	37725.6
788.682	37464.1
787.502	37318.8
786.322	37059.6
785.142	36804.8
783.961	37079.5
782.78	37638.8
781.6	37723.4
780.419	37932.4
779.237	38111.8
778.056	38141.5
776.873	38765.3
775.691	39294
774.509	39491.9
773.326	40323.4
772.143	40125.2
770.96	40341.7
769.776	40023.7
768.593	40040.3
767.408	39785.6
766.225	39009.5
765.04	38847.6
763.855	38956.9
762.67	38051.3
761.484	37843.5
760.299	36783
759.113	36531.5
757.928	36059.6
756.741	35932.2
755.555	35639
754.368	35241.1
753.181	35554.4
751.993	35592.8
750.806	35474
749.618	35655
748.43	36429
747.241	36412.7
746.053	37108.7
744.864	36803.3
743.675	36841.4
742.485	36119.5
741.296	35619.8
740.106	35593.3
738.916	35227.8
737.726	35943.9
736.535	35609.9
735.344	35598
734.152	35527.6
732.961	35195.9
731.77	35324.1
730.577	35331.1
729.386	35298.4
728.192	35522.5
727	35391.6
725.807	35417.3
724.614	35620.4
723.42	35468.8
722.227	35580
721.032	35495.1
719.838	35695.9
718.644	35738.2
717.449	35913.8
716.254	35651.8
715.059	35777.4
713.863	35934.2
712.667	35714
711.471	36130.9
710.274	36441.5
709.078	36148.5
707.881	36340.4
706.684	35958.1
705.486	35646.7
704.289	35453.9
703.091	34945.3
701.893	34975.1
700.694	34982
699.495	34706.5
698.297	34767.5
697.098	35081.8
695.897	34802.2
694.698	34832
693.498	34988.3
692.298	35126
691.098	35037.4
689.896	35413.4
688.695	35503.2
687.494	35503.7
686.293	35910.5
685.091	36010.4
683.889	36251.1
682.687	36684.4
681.483	37338.9
680.28	37840
679.077	38351.3
677.874	38471.2
676.671	38504.2
675.467	38698.5
674.263	39142.9
673.058	39287.4
671.854	39092.8
670.648	39148.4
669.443	38792.8
668.237	38575.7
667.031	38416.6
665.825	37700
664.619	37700.1
663.413	37493.8
662.206	37446.4
660.999	37281.5
659.792	36669.1
658.584	36531.2
657.376	36244.9
656.168	35884.6
654.96	35998.3
653.751	35180.8
652.542	35393.6
651.333	35311.7
650.123	35608.7
648.914	36109.4
647.704	36140.6
646.493	36200.6
645.283	36120.7
644.072	35921.6
642.861	35576.5
641.649	35466
640.438	35528.1
639.227	36134.8
638.015	35802.3
636.802	36307.9
635.589	36277.4
634.376	36702.7
633.163	37228.3
631.95	37774.3
630.736	38090.2
629.522	38740.3
628.308	38389.3
627.094	38766.4
625.879	39094.1
624.664	38647
623.448	38620.1
622.233	38509.3
621.018	38007.3
619.801	38091.1
618.585	38236.3
617.368	38629.1
616.151	38829.4
614.935	38906.8
613.717	38497.4
612.499	37820.3
611.281	37440
610.062	36548.8
608.845	36009.5
607.626	35262
606.407	35466.7
605.188	35134.2
603.968	35506.3
602.748	35492.4
601.528	35335.7
600.308	35017.8
599.087	34818.4
597.866	34243.8
596.646	33330.9
595.424	33166.7
594.202	33126.8
592.98	32917.8
591.758	32582.6
590.535	32145.7
589.312	31880
588.09	31659.3
586.866	31703.2
585.643	31710.5
584.419	31333.3
583.195	31238.9
581.971	31368.3
580.746	31396
579.521	31649.4
578.296	31589.6
577.07	31296.2
575.845	31356.3
574.619	31182.9
573.393	31003.5
572.166	31550.9
570.939	31633.3
569.713	32058.6
568.485	32406.6
567.258	32632.8
566.029	32739.2
564.802	32898.2
563.573	32643.7
562.345	33208.1
561.115	33099.5
559.887	33286.7
558.657	33457.6
557.428	33800.6
556.197	33989.5
554.967	34073.1
553.736	34664.6
552.506	34826.9
551.274	34756.6
550.043	35442.5
548.812	35610.6
547.58	36423.5
546.348	36738.8
545.115	37258
543.883	37266
542.649	37080.1
541.416	37491.9
540.183	37643.2
538.949	37996.1
537.715	38332.8
536.48	38955.8
535.246	39435.3
534.011	40269.5
532.775	41087.2
531.54	42337.8
530.305	44001
529.068	46467.3
527.833	50272
526.596	56876.1
525.359	68409.8
524.122	92305.4
522.885	143793
521.647	241961
520.409	366703
519.171	408475
517.933	316557
516.694	187503
515.455	113029
514.216	81057.6
512.977	66985.7
511.736	60064
510.497	55819.9
509.257	53984.8
508.016	52590
506.774	51711.6
505.534	50181.5
504.292	48636
503.051	46724.2
501.809	45011.8
500.566	44174
499.324	42797.5
498.081	42661.9
496.838	41476.6
495.595	41453.5
494.352	41102
493.107	41094.9
491.863	40791.6
490.619	40054.3
489.374	40147.5
488.129	39266.6
486.884	38798.1
485.639	38569.6
484.393	38607
483.146	38768.4
481.9	38765.8
480.653	38815.2
479.406	38942.4
478.159	38875.9
476.912	38879.3
475.664	38978.5
474.416	37964.3
473.168	37949.9
471.919	37943.5
470.67	37534.4
469.421	37809.2
468.172	37713.1
466.922	38240.8
465.672	38252.3
464.422	38168.1
463.172	38002.4
461.921	37410.7
460.67	36980.5
459.418	36733.5
458.167	36753.2
456.915	36707.3
455.663	36599.8
454.41	36860.1
453.157	37484
451.904	38065.9
450.651	38991.3
449.397	39306.5
448.145	39633.4
446.89	40041.6
445.636	40243.1
444.381	39978.2
443.126	39711.4
441.871	39226.5
440.615	39354.7
439.359	39048.6
438.104	39202.5
436.848	39011.4
435.591	39050.4
434.334	38907
433.076	38785.5
431.819	38473.9
430.562	38865.3
429.304	38231.2
428.045	38454.3
426.787	38839.5
425.528	38718.1
424.269	38337.8
423.01	38527
421.75	38724
420.49	38221.3
419.229	38914.3
417.969	38368.4
416.708	38476.4
415.447	38783.8
414.186	38838.3
412.924	38673.8
411.662	38913.8
410.4	38777
409.138	38577.1
407.875	38659.2
406.612	38445.6
405.349	38413.4
404.085	38280.7
402.821	37966.9
401.557	38246
400.293	37898.8