File: Finalized Code/RAMAN Data MITACs/TULSI/PMMA on Si substrate/Si-hydrophobic-with PMMA-3.txt
#Wave		#Intensity
1800.53	150230
1799.56	150883
1798.59	150709
1797.62	150579
1796.65	150477
1795.68	150765
1794.71	150740
1793.74	151192
1792.77	150687
1791.8	151101
1790.83	151194
1789.86	150497
1788.89	151905
1787.92	150890
1786.94	151572
1785.97	151409
1785	151560
1784.03	151689
1783.05	151185
1782.08	151454
1781.11	151682
1780.13	150762
1779.16	151425
1778.19	152223
1777.21	151420
1776.24	151784
1775.27	150606
1774.29	151564
1773.32	151524
1772.34	151675
1771.37	151634
1770.39	152127
1769.42	151576
1768.44	152503
1767.46	151013
1766.49	152245
1765.51	151947
1764.54	151797
1763.56	152521
1762.58	152585
1761.61	151978
1760.63	152134
1759.65	152554
1758.67	152195
1757.7	152521
1756.72	152137
1755.74	152371
1754.76	153239
1753.78	153857
1752.8	153068
1751.83	152419
1750.85	153551
1749.87	152167
1748.89	153230
1747.91	153466
1746.93	153194
1745.95	153196
1744.97	153942
1743.99	153777
1743.01	153548
1742.03	152933
1741.04	154283
1740.06	153570
1739.08	153681
1738.1	153967
1737.12	154654
1736.14	154600
1735.15	154174
1734.17	154492
1733.19	153732
1732.21	154785
1731.22	154024
1730.24	154510
1729.26	154672
1728.27	154828
1727.29	154531
1726.3	154368
1725.32	155425
1724.34	154375
1723.35	154733
1722.37	154626
1721.38	154190
1720.4	154956
1719.41	155013
1718.42	154711
1717.44	154832
1716.45	154909
1715.47	154477
1714.48	155099
1713.49	154515
1712.51	154855
1711.52	155541
1710.53	154803
1709.54	155581
1708.56	154960
1707.57	155257
1706.58	156097
1705.59	155512
1704.61	155218
1703.62	154512
1702.63	155325
1701.64	155910
1700.65	154952
1699.66	155304
1698.67	153946
1697.68	154491
1696.69	155494
1695.7	156323
1694.71	155957
1693.72	154845
1692.73	156055
1691.74	155822
1690.75	156459
1689.75	156581
1688.76	155789
1687.77	157226
1686.78	156996
1685.79	157233
1684.79	157628
1683.8	157967
1682.81	158434
1681.82	157495
1680.82	158335
1679.83	158489
1678.84	158537
1677.84	159074
1676.85	158380
1675.85	159804
1674.86	159318
1673.87	160347
1672.87	159827
1671.88	160633
1670.88	160491
1669.89	159808
1668.89	161954
1667.89	161294
1666.9	161944
1665.9	162653
1664.91	162053
1663.91	163499
1662.91	163694
1661.92	163421
1660.92	163952
1659.92	164676
1658.92	164565
1657.92	164891
1656.93	164972
1655.93	165563
1654.93	165978
1653.93	165987
1652.93	166023
1651.93	166159
1650.93	166848
1649.93	167776
1648.94	168263
1647.94	168194
1646.94	168643
1645.94	170521
1644.93	170688
1643.93	170845
1642.93	171726
1641.93	171952
1640.93	173131
1639.93	174581
1638.93	174806
1637.93	176704
1636.92	176850
1635.92	177791
1634.92	178783
1633.92	180329
1632.91	180493
1631.91	182038
1630.91	182361
1629.9	183999
1628.9	184798
1627.9	186144
1626.89	187342
1625.89	187827
1624.88	189807
1623.88	192804
1622.87	192981
1621.87	194621
1620.86	195753
1619.86	198708
1618.85	199870
1617.85	202914
1616.84	202905
1615.83	205697
1614.83	207088
1613.82	209816
1612.81	212395
1611.81	213071
1610.8	215959
1609.79	219353
1608.78	221305
1607.78	224808
1606.77	227923
1605.76	229519
1604.75	233055
1603.74	235355
1602.73	238557
1601.72	241494
1600.71	244233
1599.7	247725
1598.69	250081
1597.68	253805
1596.67	257559
1595.66	261090
1594.65	264594
1593.64	268908
1592.63	270600
1591.62	274364
1590.61	276632
1589.6	280465
1588.58	283521
1587.57	286132
1586.56	290135
1585.55	292479
1584.54	296152
1583.52	299870
1582.51	302926
1581.5	305491
1580.48	309903
1579.47	313691
1578.46	317341
1577.44	321315
1576.43	324652
1575.41	326866
1574.4	331148
1573.38	333762
1572.37	336871
1571.35	339870
1570.34	343059
1569.32	345544
1568.3	347532
1567.29	349454
1566.27	353973
1565.25	356160
1564.24	357728
1563.22	359631
1562.2	362637
1561.19	364132
1560.17	366316
1559.15	367876
1558.13	370472
1557.12	372093
1556.1	373983
1555.08	375154
1554.06	377550
1553.04	380335
1552.02	380663
1551	382422
1549.98	384749
1548.96	386831
1547.94	387365
1546.92	389612
1545.9	391628
1544.88	392510
1543.86	395412
1542.84	397058
1541.82	398340
1540.79	401737
1539.77	402262
1538.75	405732
1537.73	407493
1536.71	409768
1535.68	410738
1534.66	412631
1533.64	414988
1532.61	415651
1531.59	417471
1530.57	418831
1529.54	420450
1528.52	421628
1527.49	423016
1526.47	423780
1525.45	425747
1524.42	428315
1523.4	427596
1522.37	428623
1521.34	429225
1520.32	431388
1519.29	432448
1518.27	432915
1517.24	432985
1516.21	432983
1515.19	436542
1514.16	434894
1513.13	436829
1512.1	437513
1511.08	440103
1510.05	439590
1509.02	441854
1507.99	442432
1506.96	290470
1505.94	290742
1504.91	290648
1503.88	291915
1502.85	291971
1501.82	291080
1500.79	290952
1499.76	289670
1498.73	289335
1497.7	289720
1496.67	288518
1495.64	438712
1494.61	437738
1493.58	437234
1492.54	436480
1491.51	434081
1490.48	432265
1489.45	432080
1488.42	429844
1487.38	428997
1486.35	428677
1485.32	430195
1484.28	430628
1483.25	430865
1482.22	430027
1481.18	430960
1480.15	431212
1479.12	431513
1478.08	430936
1477.05	430776
1476.01	429963
1474.98	429043
1473.94	428678
1472.91	426193
1471.87	424062
1470.83	422151
1469.8	421019
1468.76	419914
1467.73	418213
1466.69	415932
1465.65	413088
1464.61	410569
1463.58	409405
1462.54	405820
1461.5	403517
1460.46	402918
1459.42	400761
1458.39	398581
1457.35	397416
1456.31	396440
1455.27	394962
1454.23	391593
1453.19	390773
1452.15	388638
1451.11	386674
1450.07	386958
1449.03	386187
1447.99	386041
1446.95	384229
1445.91	383452
1444.87	383024
1443.83	381882
1442.78	380448
1441.74	380296
1440.7	379601
1439.66	378252
1438.62	376954
1437.57	375895
1436.53	373705
1435.49	371618
1434.44	370129
1433.4	368516
1432.36	368166
1431.31	366826
1430.27	364817
1429.22	365281
1428.18	363482
1427.13	363293
1426.09	363414
1425.04	363396
1424	363824
1422.95	364083
1421.91	365015
1420.86	365742
1419.81	367932
1418.77	369928
1417.72	370035
1416.67	371736
1415.63	372553
1414.58	372731
1413.53	374489
1412.48	374139
1411.44	372251
1410.39	372500
1409.34	371929
1408.29	371361
1407.24	370542
1406.19	368527
1405.14	368080
1404.09	367898
1403.04	366824
1401.99	367123
1400.94	365520
1399.89	365253
1398.84	364291
1397.79	362643
1396.74	361730
1395.69	360750
1394.64	357186
1393.58	356343
1392.53	352951
1391.48	349650
1390.43	347976
1389.38	346688
1388.32	344247
1387.27	342852
1386.22	341729
1385.16	339510
1384.11	339284
1383.05	336297
1382	336818
1380.95	337636
1379.89	332148
1378.84	332079
1377.78	330536
1376.73	329941
1375.67	328394
1374.62	325861
1373.56	325021
1372.5	322464
1371.45	323559
1370.39	322583
1369.33	321074
1368.28	320600
1367.22	320567
1366.16	321904
1365.1	320872
1364.05	320599
1362.99	320020
1361.93	320638
1360.87	320109
1359.81	320071
1358.75	321389
1357.69	320686
1356.63	320519
1355.58	320767
1354.52	319963
1353.46	320437
1352.4	319934
1351.33	318948
1350.27	318738
1349.21	319930
1348.15	318682
1347.09	319953
1346.03	319612
1344.97	319879
1343.91	319736
1342.84	320119
1341.78	321438
1340.72	320418
1339.66	320302
1338.59	319749
1337.53	320957
1336.46	319715
1335.4	319913
1334.34	320294
1333.27	319004
1332.21	318767
1331.14	318519
1330.08	317211
1329.01	317494
1327.95	316322
1326.88	316303
1325.82	316413
1324.75	314418
1323.68	314302
1322.62	312464
1321.55	313053
1320.48	310479
1319.42	310098
1318.35	309452
1317.28	309666
1316.21	309364
1315.15	310076
1314.08	308338
1313.01	310392
1311.94	309049
1310.87	310089
1309.8	310036
1308.73	311809
1307.67	311963
1306.59	311356
1305.53	314028
1304.46	314649
1303.38	315968
1302.31	317389
1301.24	319692
1300.17	320242
1299.1	321321
1298.03	322786
1296.96	324668
1295.88	326981
1294.81	328674
1293.74	330012
1292.67	331434
1291.59	332688
1290.52	335060
1289.45	335751
1288.38	335874
1287.3	337432
1286.23	338639
1285.15	340328
1284.08	341446
1283	340873
1281.93	340415
1280.85	341491
1279.78	341230
1278.7	338675
1277.63	336708
1276.55	334794
1275.47	335419
1274.4	331932
1273.32	330462
1272.25	326215
1271.17	324809
1270.09	322811
1269.01	322201
1267.93	320482
1266.86	319265
1265.78	317695
1264.7	315498
1263.62	315236
1262.54	314143
1261.46	314161
1260.38	312778
1259.3	311463
1258.22	310388
1257.14	310497
1256.06	309328
1254.98	308185
1253.9	309462
1252.82	309210
1251.74	309994
1250.66	308890
1249.58	308251
1248.5	309616
1247.41	309749
1246.33	308753
1245.25	307966
1244.17	307463
1243.08	306899
1242	305553
1240.92	305756
1239.83	304890
1238.75	303308
1237.67	303449
1236.58	302518
1235.5	303253
1234.41	302639
1233.33	301598
1232.24	302421
1231.16	301762
1230.07	301302
1228.98	299714
1227.9	298774
1226.81	298968
1225.72	299018
1224.64	297516
1223.55	298022
1222.46	297101
1221.38	297525
1220.29	297220
1219.2	297265
1218.11	296196
1217.02	295926
1215.93	297054
1214.85	297079
1213.76	298299
1212.67	298212
1211.58	299797
1210.49	301391
1209.4	303539
1208.31	304903
1207.22	308710
1206.13	308563
1205.04	311975
1203.94	313411
1202.85	315805
1201.76	317278
1200.67	320017
1199.58	321202
1198.49	323389
1197.39	325256
1196.3	325626
1195.21	326095
1194.11	328405
1193.02	329418
1191.93	330278
1190.83	332765
1189.74	335501
1188.64	337454
1187.55	339144
1186.46	343458
1185.36	345457
1184.26	348354
1183.17	350981
1182.07	353030
1180.98	356373
1179.88	358227
1178.79	361754
1177.69	364891
1176.59	367895
1175.49	370993
1174.4	374083
1173.3	375057
1172.2	377131
1171.1	379219
1170	382754
1168.91	385106
1167.81	389106
1166.71	389184
1165.61	391508
1164.51	394648
1163.41	395317
1162.31	397928
1161.21	397922
1160.11	399020
1159.01	402531
1157.91	403403
1156.81	404271
1155.71	404344
1154.61	405437
1153.5	406276
1152.4	406066
1151.3	406033
1150.2	406065
1149.09	405795
1147.99	405314
1146.89	404189
1145.79	402384
1144.68	402207
1143.58	398649
1142.47	397103
1141.37	394684
1140.26	391443
1139.16	388171
1138.05	384346
1136.95	382585
1135.84	378281
1134.74	375668
1133.63	373695
1132.53	370022
1131.42	367185
1130.31	364160
1129.21	360934
1128.1	357561
1126.99	354944
1125.88	351027
1124.78	347099
1123.67	342192
1122.56	338929
1121.45	333815
1120.34	329659
1119.23	325854
1118.12	320375
1117.02	316595
1115.91	312534
1114.8	306815
1113.69	302531
1112.58	299002
1111.47	296507
1110.35	293064
1109.24	288908
1108.13	286718
1107.02	284198
1105.91	281150
1104.8	278518
1103.68	275737
1102.57	274477
1101.46	269776
1100.35	268124
1099.23	265539
1098.12	263039
1097.01	260971
1095.89	258620
1094.78	255609
1093.66	253150
1092.55	250412
1091.44	248250
1090.32	246744
1089.21	244337
1088.09	242223
1086.97	242102
1085.86	239427
1084.74	237675
1083.62	236059
1082.51	235545
1081.39	234323
1080.27	233574
1079.16	231445
1078.04	231361
1076.92	229062
1075.8	228566
1074.68	228237
1073.57	227465
1072.45	226135
1071.33	225356
1070.21	224518
1069.09	223683
1067.97	220625
1066.85	220421
1065.73	219205
1064.61	218110
1063.49	217573
1062.37	216052
1061.25	215422
1060.12	215316
1059	214540
1057.88	213394
1056.76	212437
1055.64	210819
1054.51	210728
1053.39	209741
1052.27	208131
1051.15	206700
1050.02	205269
1048.9	204454
1047.77	203117
1046.65	202210
1045.53	200363
1044.4	199472
1043.28	198605
1042.15	197620
1041.02	196065
1039.9	195264
1038.77	193644
1037.65	192825
1036.52	193244
1035.39	191589
1034.27	190468
1033.14	189964
1032.01	189520
1030.88	188643
1029.76	188614
1028.63	188702
1027.5	187322
1026.37	187375
1025.24	187042
1024.11	185814
1022.99	185816
1021.86	185312
1020.73	184745
1019.6	183867
1018.47	183550
1017.33	183366
1016.2	182468
1015.07	183068
1013.94	182554
1012.81	181973
1011.68	181642
1010.55	180922
1009.42	181092
1008.28	180585
1007.15	180602
1006.02	180827
1004.88	181567
1003.75	182416
1002.62	184082
1001.48	185556
1000.35	188057
999.215	188631
998.08	188446
996.945	187452
995.811	185646
994.675	184685
993.54	184499
992.404	185716
991.268	184971
990.132	185425
988.995	187191
987.858	187219
986.722	188423
985.584	189412
984.446	190175
983.309	191726
982.171	192061
981.033	193620
979.895	194386
978.756	195630
977.617	195228
976.478	195881
975.338	196141
974.198	195946
973.059	196031
971.919	196309
970.778	197051
969.638	197192
968.497	197421
967.355	198398
966.215	198611
965.073	198671
963.931	199361
962.789	200267
961.646	200809
960.504	201799
959.361	202602
958.218	203722
957.075	203992
955.932	205636
954.788	206698
953.644	207233
952.499	207807
951.354	209544
950.21	210687
949.065	210186
947.92	209984
946.774	208950
945.629	209521
944.482	209200
943.337	209929
942.19	209628
941.043	209396
939.896	208438
938.749	207660
937.602	207394
936.454	205920
935.306	206039
934.158	205299
933.01	202837
931.861	200995
930.712	200052
929.562	197808
928.413	195641
927.264	194213
926.114	192398
924.964	189737
923.813	188376
922.663	186862
921.512	186033
920.36	184195
919.209	183427
918.058	181857
916.906	180884
915.754	179184
914.602	178113
913.449	177219
912.296	175758
911.143	174675
909.989	173487
908.836	172930
907.683	172651
906.528	171751
905.374	171848
904.219	172635
903.064	171826
901.909	171815
900.754	172199
899.599	172252
898.442	172364
897.286	172454
896.13	173287
894.974	172419
893.817	172761
892.66	173441
891.503	173516
890.345	174608
889.188	174306
888.029	175270
886.871	174117
885.712	175047
884.554	174515
883.395	174637
882.235	174185
881.076	174231
879.916	174065
878.756	173796
877.596	173688
876.436	172754
875.274	172719
874.113	172686
872.952	171865
871.791	171815
870.629	170865
869.467	170968
868.305	170243
867.142	170712
865.979	169564
864.816	170228
863.653	169718
862.489	169378
861.326	170187
860.162	169688
858.997	169357
857.833	170000
856.668	170333
855.503	170342
854.338	170363
853.172	170542
852.007	170183
850.841	169933
849.674	170797
848.508	170174
847.341	171014
846.174	170572
845.007	171344
843.839	170991
842.672	170921
841.504	171214
840.335	170515
839.167	169860
837.998	169632
836.829	168984
835.659	168473
834.49	168554
833.32	168453
832.15	168343
830.979	167360
829.81	166632
828.639	165671
827.468	164896
826.296	164631
825.125	163524
823.953	162819
822.781	161811
821.608	161144
820.436	160030
819.264	158919
818.09	158412
816.917	156958
815.743	156663
814.569	155963
813.396	155637
812.221	155434
811.047	154109
809.872	154138
808.696	154159
807.521	152853
806.346	153259
805.17	152633
803.994	151537
802.817	151500
801.641	151019
800.464	150675
799.287	149502
798.109	148396
796.932	149152
795.754	148072
794.576	147936
793.397	147410
792.219	146525
791.04	147133
789.86	147190
788.682	145845
787.502	145252
786.322	145987
785.142	144852
783.961	144384
782.78	143011
781.6	142595
780.419	141466
779.237	141083
778.056	140614
776.873	140626
775.691	140897
774.509	140220
773.326	140324
772.143	140483
770.96	140634
769.776	140101
768.593	140826
767.408	140492
766.225	141187
765.04	141191
763.855	141229
762.67	140459
761.484	141191
760.299	141090
759.113	140629
757.928	140239
756.741	140641
755.555	139163
754.368	139139
753.181	139142
751.993	138953
750.806	139015
749.618	139136
748.43	139215
747.241	139000
746.053	138805
744.864	138481
743.675	138238
742.485	137749
741.296	137579
740.106	137656
738.916	137049
737.726	137373
736.535	137571
735.344	137650
734.152	138203
732.961	138263
731.77	138231
730.577	138297
729.386	138123
728.192	138899
727	139329
725.807	139282
724.614	139216
723.42	138737
722.227	138451
721.032	138010
719.838	137876
718.644	138313
717.449	138170
716.254	138442
715.059	138158
713.863	138307
712.667	138310
711.471	138010
710.274	137863
709.078	138387
707.881	138877
706.684	139400
705.486	140424
704.289	141431
703.091	141560
701.893	142714
700.694	142436
699.495	143196
698.297	143003
697.098	142858
695.897	143649
694.698	142640
693.498	144126
692.298	144338
691.098	144397
689.896	144785
688.695	144600
687.494	145584
686.293	145325
685.091	145419
683.889	145659
682.687	146286
681.483	146490
680.28	146645
679.077	146834
677.874	147187
676.671	146803
675.467	146643
674.263	146655
673.058	145926
671.854	145884
670.648	146051
669.443	146335
668.237	146565
667.031	145953
665.825	145455
664.619	145853
663.413	145127
662.206	145370
660.999	145572
659.792	146717
658.584	146296
657.376	146517
656.168	145381
654.96	145230
653.751	144848
652.542	144474
651.333	143716
650.123	144113
648.914	144289
647.704	143651
646.493	144387
645.283	143734
644.072	143610
642.861	143727
641.649	142721
640.438	143124
639.227	142388
638.015	143127
636.802	143007
635.589	143245
634.376	142931
633.163	143136
631.95	142281
630.736	141698
629.522	141998
628.308	141653
627.094	141036
625.879	140964
624.664	141322
623.448	141546
622.233	142422
621.018	142434
619.801	141963
618.585	142073
617.368	141350
616.151	141166
614.935	141031
613.717	141086
612.499	139810
611.281	139556
610.062	139671
608.845	138894
607.626	139373
606.407	138333
605.188	138107
603.968	137060
602.748	137183
601.528	136553
600.308	136252
599.087	135797
597.866	135933
596.646	136468
595.424	136210
594.202	135403
592.98	135576
591.758	134951
590.535	134396
589.312	134436
588.09	134765
586.866	134829
585.643	134378
584.419	133630
583.195	133294
581.971	133277
580.746	132955
579.521	133759
578.296	133813
577.07	134024
575.845	134285
574.619	134722
573.393	134218
572.166	133817
570.939	134764
569.713	134556
568.485	134270
567.258	134590
566.029	135053
564.802	134663
563.573	135043
562.345	135686
561.115	135443
559.887	135701
558.657	135465
557.428	134400
556.197	135110
554.967	135129
553.736	134844
552.506	135326
551.274	135624
550.043	136731
548.812	137073
547.58	137370
546.348	138278
545.115	139165
543.883	139227
542.649	140034
541.416	140896
540.183	142535
538.949	143323
537.715	144732
536.48	146118
535.246	146957
534.011	148552
532.775	149330
531.54	150803
530.305	152887
529.068	155944
527.833	158985
526.596	165094
525.359	173880
524.122	194049
522.885	239602
521.647	323021
520.409	416571
519.171	440485
517.933	362166
516.694	262300
515.455	203188
514.216	176958
512.977	165452
511.736	159435
510.497	155326
509.257	153900
508.016	152110
506.774	151137
505.534	150731
504.292	150036
503.051	148946
501.809	149045
500.566	149293
499.324	149022
498.081	149061
496.838	150426
495.595	149444
494.352	150512
493.107	150837
491.863	150880
490.619	151223
489.374	150646
488.129	151168
486.884	151303
485.639	149904
484.393	150137
483.146	149618
481.9	149635
480.653	148935
479.406	148303
478.159	148520
476.912	147631
475.664	149153
474.416	148232
473.168	148411
471.919	148723
470.67	148136
469.421	148936
468.172	149691
466.922	149887
465.672	150551
464.422	150956
463.172	150295
461.921	150839
460.67	150141
459.418	149971
458.167	150178
456.915	149898
455.663	149716
454.41	150094
453.157	150264
451.904	152224
450.651	153152
449.397	154016
448.145	155243
446.89	155330
445.636	154908
444.381	154683
443.126	154548
441.871	154417
440.615	154690
439.359	154213
438.104	155198
436.848	156050
435.591	156509
434.334	157326
433.076	157875
431.819	158854
430.562	159694
429.304	160484
428.045	161301
426.787	161746
425.528	162707
424.269	163385
423.01	164516
421.75	165009
420.49	165793
419.229	167101
417.969	167525
416.708	169668
415.447	169593
414.186	170791
412.924	171292
411.662	171492
410.4	172109
409.138	172270
407.875	171556
406.612	171717
405.349	169901
404.085	170584
402.821	169292
401.557	169538
400.293	169837