File: Finalized Code/Tuned Standard Models/RAMAN Data MITACs/Bulk Carbon Ring Identification/Copy of DMCAnoBL.txt
#Wave		#Intensity
1724.09	61.7212
1723.11	5.172694
1722.13	215.205
1721.15	123.652
1720.17	12.773
1719.19	116.287
1718.21	281.652
1717.23	5.838163
1716.25	-81.1176
1715.27	114.549
1714.29	11.3993
1713.31	5.439505
1712.33	137.199
1711.35	-37.368
1710.37	14.5065
1709.38	-24.3264
1708.4	92.1124
1707.42	148.218
1706.44	-68.8592
1705.45	-171.302
1704.47	38.3381
1703.49	43.2421
1702.5	73.8948
1701.52	-36.8174
1700.54	-28.1103
1699.55	26.5096
1698.57	71.3507
1697.58	40.6383
1696.6	-101.003
1695.62	43.4193
1694.63	92.0044
1693.64	-61.3346
1692.66	45.8994
1691.67	29.5367
1690.69	-42.1443
1689.7	-75.7168
1688.71	37.3503
1687.73	74.8337
1686.74	157.898
1685.75	213.323
1684.77	190.675
1683.78	67.2954
1682.79	188.671
1681.81	-40.2954
1680.82	96.383
1679.83	172.622
1678.84	80.1195
1677.85	91.0019
1676.86	207.705
1675.87	19.7704
1674.88	214.583
1673.9	21.7864
1672.91	128.532
1671.92	61.6719
1670.93	70.3264
1669.94	-1.482547
1668.95	57.4717
1667.96	146.578
1666.96	120.04
1665.97	58.3418
1664.98	114.714
1663.99	75.6032
1663	36.5007
1662.01	2.404020
1661.01	23.5131
1660.02	132.412
1659.03	178.513
1658.04	131.743
1657.04	59.8875
1656.05	-187.495
1655.06	8.864724
1654.06	107.366
1653.07	-187.621
1652.08	28.5292
1651.08	-88.5847
1650.09	42.1956
1649.09	-62.4557
1648.1	-87.0275
1647.1	121.093
1646.11	66.3633
1645.11	41.6206
1644.12	-3.173485
1643.12	179.527
1642.13	-100.388
1641.13	92.1458
1640.13	17.1562
1639.14	59.5775
1638.14	-102.904
1637.14	-118.028
1636.15	51.5643
1635.15	-68.5411
1634.15	40.9725
1633.15	150.381
1632.15	105.026
1631.16	-5.214407
1630.16	-73.0515
1629.16	6.179594
1628.16	67.8873
1627.16	139.497
1626.16	19.1904
1625.16	5.998641
1624.16	25.1539
1623.16	6.918627
1622.16	-36.2355
1621.16	-79.4024
1620.16	78.9722
1619.16	-36.414
1618.16	34.777
1617.16	-85.5708
1616.16	-34.3427
1615.15	61.6023
1614.15	10.8482
1613.15	-87.1195
1612.15	-105.55
1611.14	109.476
1610.14	11.5339
1609.14	77.4741
1608.14	73.872
1607.13	-38.9083
1606.13	116.31
1605.12	45.7336
1604.12	52.0761
1603.12	120.414
1602.11	136.665
1601.11	38.9219
1600.1	102.294
1599.1	-69.7006
1598.09	75.4351
1597.09	156.158
1596.08	231.908
1595.08	112.1
1594.07	133.427
1593.06	73.1356
1592.06	101.951
1591.05	113.477
1590.04	-62.8943
1589.04	94.6049
1588.03	17.254
1587.02	-32.8345
1586.01	-107.563
1585	37.6365
1584	59.3426
1582.99	110.712
1581.98	216.424
1580.97	55.5956
1579.96	242.822
1578.95	-14.0498
1577.94	-70.95
1576.93	99.101
1575.92	5.328969
1574.91	76.8291
1573.9	274.047
1572.89	106.6
1571.88	64.922
1570.87	284.394
1569.86	102.493
1568.85	68.4483
1567.84	162.488
1566.82	-75.6424
1565.81	168.632
1564.8	105.403
1563.79	69.3407
1562.77	124.353
1561.76	98.3096
1560.75	123.978
1559.74	93.2021
1558.72	-1.341640
1557.71	206.355
1556.69	274.087
1555.68	297.685
1554.67	215.822
1553.65	323.054
1552.64	113.831
1551.62	211.425
1550.61	58.9142
1549.59	242.492
1548.57	151.529
1547.56	-52.0384
1546.54	65.585
1545.53	195.513
1544.51	65.8594
1543.49	73.49
1542.48	-9.359010
1541.46	37.6617
1540.44	111.692
1539.42	24.3063
1538.41	-18.9001
1537.39	55.4173
1536.37	-68.2612
1535.35	18.4696
1534.33	36.8346
1533.31	16.1959
1532.29	-45.8529
1531.27	258.63
1530.25	140.601
1529.24	113.072
1528.21	22.1894
1527.19	-68.5437
1526.17	-10.2825
1525.15	18.7893
1524.13	-56.9204
1523.11	111.361
1522.09	23.6875
1521.07	-19.9628
1520.05	-112.225
1519.03	63.6735
1518	-133.099
1516.98	-13.0726
1515.96	41.2691
1514.93	-120.97
1513.91	125.866
1512.89	7.693845
1511.87	-105.454
1510.84	192.617
1509.82	106.438
1508.79	149.26
1507.77	41.4615
1506.74	21.3033
1505.72	40.1348
1504.69	117.36
1503.67	296.663
1502.64	199.177
1501.62	220.792
1500.59	240.072
1499.57	227.896
1498.54	293.461
1497.51	228.116
1496.49	223.523
1495.46	337.838
1494.43	394.021
1493.41	292.747
1492.38	613.219
1491.35	977.257
1490.32	767.217
1489.29	840.676
1488.26	974.721
1487.24	1140.27
1486.21	1359.07
1485.18	1502.87
1484.15	1566.88
1483.12	2020.31
1482.09	2398.67
1481.06	2680.27
1480.03	2944.92
1479	3124.97
1477.97	3730.21
1476.94	3721.79
1475.91	4184.34
1474.87	4149.44
1473.84	4394.62
1472.81	4593.93
1471.78	4679.84
1470.75	4932.23
1469.71	4863.84
1468.68	5222.33
1467.65	5277
1466.62	5447.41
1465.58	5408.19
1464.55	5624.42
1463.51	5652.76
1462.48	5541.49
1461.45	5757.77
1460.41	5872.93
1459.38	5812.44
1458.34	6360.76
1457.31	6302.73
1456.27	6631.99
1455.24	6975.61
1454.2	7417.7
1453.16	7640.96
1452.13	8323.14
1451.09	8858.55
1450.05	9473.05
1449.02	10212.2
1447.98	10631.8
1446.94	11493
1445.91	12279.4
1444.87	13336.7
1443.83	14506.3
1442.79	15267.8
1441.75	15400.8
1440.71	14411.9
1439.68	12920.1
1438.64	10786.8
1437.6	9643.99
1436.56	8729.21
1435.52	7417.38
1434.48	6486.82
1433.44	5405.92
1432.4	4715.62
1431.36	4035.24
1430.32	3359.98
1429.27	3031.84
1428.23	2345.24
1427.19	2175.34
1426.15	2105.94
1425.11	1864.58
1424.07	1635.31
1423.02	1339.32
1421.98	1232.15
1420.94	1273.09
1419.89	1158.91
1418.85	985.167
1417.81	1054.91
1416.76	950.53
1415.72	693.608
1414.67	598.98
1413.63	769.049
1412.58	762.721
1411.54	765.971
1410.5	788.321
1409.45	1115.58
1408.4	1352.25
1407.36	1419.83
1406.31	1789.71
1405.27	1488.39
1404.22	1365.69
1403.17	1052.78
1402.13	963.607
1401.08	655.768
1400.03	576.311
1398.98	313.932
1397.94	332.096
1396.89	383.557
1395.84	104.892
1394.79	6.866339
1393.74	3.890149
1392.69	27.068
1391.64	9.941768
1390.59	180.295
1389.54	329.274
1388.49	117.759
1387.44	252.554
1386.39	278.287
1385.34	422.558
1384.29	280.106
1383.24	459.943
1382.19	533.165
1381.14	762.688
1380.09	935.342
1379.03	1493.77
1377.98	1495.91
1376.93	1834.05
1375.88	1781.8
1374.82	1637.4
1373.77	1471.83
1372.72	1353.67
1371.66	1096.16
1370.61	959.33
1369.56	678.505
1368.5	511.225
1367.45	483.379
1366.39	694.039
1365.34	637.96
1364.28	697.581
1363.23	457.615
1362.17	753.234
1361.12	904.931
1360.06	764.273
1359	866.521
1357.95	945.212
1356.89	1165.3
1355.83	1498.43
1354.77	1956.29
1353.72	2018.44
1352.66	2499.65
1351.6	3178.42
1350.54	3468.7
1349.48	3829.5
1348.43	3997.34
1347.37	3955.89
1346.31	3865.15
1345.25	3854.45
1344.19	3566.52
1343.13	3168.36
1342.07	2716.42
1341.01	2600.58
1339.95	2179.63
1338.89	1892.74
1337.83	1995.64
1336.77	1941.36
1335.7	1924.72
1334.64	1718.18
1333.58	1741.62
1332.52	1467.39
1331.46	1673.84
1330.39	1580.34
1329.33	1508.05
1328.27	1325.8
1327.2	1422.38
1326.14	1399.59
1325.08	1341.79
1324.01	1401.12
1322.95	1310.77
1321.88	1164.41
1320.82	1060.29
1319.75	1271.97
1318.69	1245.21
1317.62	1330.73
1316.56	1395.29
1315.49	1583.73
1314.43	1723.12
1313.36	1960.64
1312.29	1628.52
1311.23	1672.41
1310.16	1569.39
1309.09	1606.49
1308.02	1666.99
1306.96	1902.48
1305.89	2019.07
1304.82	2231.28
1303.75	2567.01
1302.68	2648.74
1301.61	2746.85
1300.55	3047.64
1299.48	2926.97
1298.41	2601.61
1297.34	2388.21
1296.27	2126.16
1295.2	1778.27
1294.13	1956.28
1293.05	1973.89
1291.98	1940.46
1290.91	2244.19
1289.84	2234.18
1288.77	2091.87
1287.7	2235.45
1286.62	2406.96
1285.55	2483.32
1284.48	2657.26
1283.41	2879.98
1282.33	3049.36
1281.26	2896.35
1280.19	3381.33
1279.11	3638.98
1278.04	3824.77
1276.96	4082.47
1275.89	4678.47
1274.81	4767.01
1273.74	5216.94
1272.66	5636.71
1271.59	6570.37
1270.51	6895.02
1269.44	7087.75
1268.36	7222.7
1267.28	7565.89
1266.21	7730.99
1265.13	7775.93
1264.05	7890.34
1262.98	8014.08
1261.9	8098.61
1260.82	8180.93
1259.74	8034.72
1258.66	7794.04
1257.58	8056.86
1256.51	7987.35
1255.43	8178.74
1254.35	8035.69
1253.27	7652.99
1252.19	7090.72
1251.11	6443.55
1250.03	5736.89
1248.95	5254.19
1247.87	4884.75
1246.79	4679.14
1245.7	4342.5
1244.62	4639.29
1243.54	4307.68
1242.46	4167.38
1241.38	4227.46
1240.29	4094.42
1239.21	3950.09
1238.13	3619.73
1237.04	3420.67
1235.96	3191.99
1234.88	3151.93
1233.79	3050.02
1232.71	3051.65
1231.62	2970.76
1230.54	3177
1229.46	2903.61
1228.37	2878.29
1227.29	2896.71
1226.2	2559.76
1225.11	2518.91
1224.03	2517.18
1222.94	2290.97
1221.85	2227.71
1220.77	1928.64
1219.68	1955.08
1218.59	1645.03
1217.51	1596.24
1216.42	1483.53
1215.33	1538.07
1214.24	1290.69
1213.15	1315.77
1212.06	1313.53
1210.97	1364.01
1209.89	1053.42
1208.8	951.078
1207.71	965.44
1206.62	1130.69
1205.53	1047.05
1204.44	1141.68
1203.34	1352.82
1202.25	1653
1201.16	2206.46
1200.07	2333.18
1198.98	2539.8
1197.89	2174.1
1196.79	1491.81
1195.7	1227.05
1194.61	684.513
1193.52	577.472
1192.42	475.147
1191.33	247.752
1190.24	6.908977
1189.14	84.9447
1188.05	12.8592
1186.95	-13.5658
1185.86	69.3075
1184.76	170.439
1183.67	326.213
1182.57	411.551
1181.48	944.626
1180.38	1320.83
1179.29	1951.35
1178.19	2320.53
1177.09	2187.85
1176	1878.25
1174.9	1053.73
1173.8	765.127
1172.7	556.159
1171.61	360.999
1170.51	231.744
1169.41	245.468
1168.31	216.202
1167.21	372.833
1166.11	581.595
1165.01	792.579
1163.91	774.858
1162.81	838.735
1161.71	1006.75
1160.61	1111.41
1159.51	1195.73
1158.41	1234.83
1157.31	1052.39
1156.21	827.133
1155.11	574.912
1154.01	440.368
1152.9	324.034
1151.8	316.202
1150.7	89.3915
1149.6	25.311
1148.49	-43.2341
1147.39	5.666247
1146.29	34.2784
1145.18	-61.1263
1144.08	5.898577
1142.97	-62.3317
1141.87	-51.6045
1140.76	200.311
1139.66	289.89
1138.55	379.474
1137.45	336.165
1136.34	659.931
1135.24	819.237
1134.13	1183.27
1133.02	1864.45
1131.92	2642.04
1130.81	3095.45
1129.7	3393.51
1128.59	3237.33
1127.49	3072.23
1126.38	2298.29
1125.27	1794.27
1124.16	1281.5
1123.05	1015.97
1121.94	528.306
1120.83	626.652
1119.72	612.741
1118.61	392.444
1117.5	405.469
1116.39	422.972
1115.28	341.822
1114.17	251.692
1113.06	293.807
1111.95	288.824
1110.84	135.999
1109.73	216.076
1108.61	271.473
1107.5	295.465
1106.39	270.192
1105.28	124.046
1104.16	360.432
1103.05	317.122
1101.93	526.443
1100.82	415.946
1099.71	750.178
1098.59	612.792
1097.48	803.742
1096.36	733.273
1095.25	870.409
1094.13	665.885
1093.02	655.559
1091.9	480.033
1090.78	743.972
1089.67	838.238
1088.55	684.866
1087.43	787.851
1086.32	752.526
1085.2	870.888
1084.08	690.583
1082.96	833.215
1081.84	677.324
1080.73	730.675
1079.61	919.639
1078.49	986.056
1077.37	1250.32
1076.25	1663.38
1075.13	1973.87
1074.01	2399.69
1072.89	2620.74
1071.77	2630.47
1070.65	2380.19
1069.53	1841.18
1068.4	1626.49
1067.28	1533.86
1066.16	1498.87
1065.04	1583.58
1063.92	2009.77
1062.79	2402.37
1061.67	2892.22
1060.55	3368.41
1059.42	3824.29
1058.3	4326.37
1057.18	4358.43
1056.05	4476.7
1054.93	4579.28
1053.8	5020.39
1052.68	5523.12
1051.55	6397.21
1050.43	6498.65
1049.3	6420.75
1048.18	5721.37
1047.05	5163.65
1045.92	4667.9
1044.8	4603.13
1043.67	4222.3
1042.54	3989.49
1041.41	3988.47
1040.29	4088.85
1039.16	4431.8
1038.03	4485.37
1036.9	4821.12
1035.77	4298.55
1034.64	3813.52
1033.51	3654.84
1032.38	3784.8
1031.25	4353.05
1030.12	4834.96
1028.99	5911.14
1027.86	6914
1026.73	7792.91
1025.6	8248.64
1024.47	7652.09
1023.34	6472.62
1022.21	5115.34
1021.07	3875.07
1019.94	3149.64
1018.81	2439.74
1017.67	1850.85
1016.54	1459.78
1015.41	1046.72
1014.27	886.219
1013.14	798.058
1012	560.475
1010.87	289.903
1009.73	278.16
1008.6	253.056
1007.46	205.85
1006.33	138.739
1005.19	163.524
1004.06	28.1286
1002.92	26.2549
1001.78	78.9454
1000.65	78.8677
999.509	52.3105
998.371	40.9008
997.233	92.7617
996.095	100.654
994.957	224.265
993.818	325.763
992.679	462.007
991.54	534.593
990.4	670.332
989.261	886.649
988.121	1039.32
986.98	1416.67
985.84	2033.81
984.699	3178.69
983.559	4652.36
982.417	5158.65
981.275	4610.97
980.134	3638.11
978.991	2621.92
977.85	1780.37
976.707	1189.65
975.563	869.174
974.421	526.871
973.277	411.023
972.134	207.956
970.989	135.403
969.846	234.608
968.701	15.9436
967.556	75.6204
966.411	91.5895
965.266	-14.3758
964.12	-44.3953
962.975	-15.9057
961.828	44.9859
960.682	-31.1686
959.535	9.802668
958.389	-40.6038
957.241	-130.225
956.094	-7.310581
954.946	-58.1866
953.798	-122.217
952.649	-47.599
951.501	7.307635
950.353	29.5126
949.203	-45.967
948.054	-125.904
946.904	-13.189
945.755	6.201281
944.604	18.935
943.454	-20.4371
942.304	-5.843128
941.152	6.433569
940.001	102.912
938.85	71.6159
937.698	55.3248
936.546	60.5156
935.394	123.91
934.241	27.266
933.089	86.0456
931.936	105.797
930.782	151.314
929.628	252.8
928.475	179.323
927.32	286.975
926.166	299.554
925.011	210.658
923.856	199.297
922.701	172.739
921.545	178.402
920.39	209.805
919.233	230.315
918.077	233.484
916.92	376.479
915.764	205.072
914.606	46.5573
913.449	-4.414428
912.291	-31.798
911.133	-61.4094
909.975	-11.5543
908.816	48.9381
907.657	21.2191
906.498	34.2489
905.339	161.025
904.18	145.948
903.02	190.913
901.859	345.243
900.699	495.141
899.538	601.998
898.377	779.518
897.216	896.856
896.055	1071.96
894.893	1004.75
893.73	950.372
892.568	913.109
891.405	710.906
890.242	752.848
889.079	858.948
887.916	885.775
886.752	906.131
885.588	930.724
884.424	829.095
883.259	678.307
882.095	619.485
880.929	547.841
879.764	467.667
878.598	513.542
877.433	689.653
876.266	878.476
875.1	1009.57
873.933	1215.28
872.766	1512.64
871.599	1993.29
870.431	2004.56
869.263	1860.18
868.095	1641.27
866.926	1558.86
865.758	1563.85
864.589	1711.56
863.419	2121.15
862.25	3175.66
861.08	4574.51
859.91	5259.84
858.739	4921.52
857.568	3781.51
856.397	2935.53
855.227	2272.81
854.055	1752.85
852.883	1528.55
851.711	1514.72
850.539	1432.97
849.366	1587
848.193	1702.8
847.021	2007.48
845.847	2456.36
844.673	3199.96
843.499	3671.78
842.325	3954.71
841.15	3794.48
839.976	3852.7
838.801	4243.62
837.625	4615.35
836.449	5359.73
835.273	6059.34
834.097	6400.94
832.921	5946.66
831.744	5010.23
830.566	3970.67
829.39	2800.55
828.212	2172.34
827.034	1897.54
825.855	1690.57
824.677	1331.65
823.498	1173.66
822.319	1081.29
821.14	1050.28
819.96	998.26
818.78	984.333
817.601	987.375
816.42	1155.03
815.239	1428.14
814.059	2059.63
812.877	3089.3
811.695	4356.69
810.514	4039.2
809.331	3094.26
808.149	2080.37
806.966	1675.5
805.783	1416.15
804.6	1085.47
803.416	975.936
802.232	992.752
801.049	923.435
799.864	1030.84
798.68	953.325
797.494	1113.39
796.31	1218.85
795.124	1252.94
793.938	1394.2
792.752	1655.14
791.565	1966.42
790.379	2447.61
789.191	3100.68
788.005	4072.33
786.817	5177.79
785.629	6989.28
784.441	10091
783.253	15339
782.064	22784.2
780.875	30785.1
779.687	31644.4
778.497	23416.3
777.307	15165
776.117	10047.9
774.927	7020.87
773.735	5053.6
772.545	3869.32
771.354	2923.98
770.162	2415.93
768.971	1910.29
767.778	1524.04
766.586	1359.39
765.394	1176.11
764.2	1022.2
763.007	899.736
761.813	825.379
760.62	794.922
759.426	714.495
758.231	529.925
757.037	576.857
755.842	505.048
754.646	522.907
753.451	280.457
752.256	325.53
751.06	431.003
749.863	315.851
748.666	294.435
747.47	275.145
746.272	214.308
745.074	269.981
743.877	153.114
742.679	169.348
741.48	306.115
740.281	137.48
739.083	180.779
737.884	64.2049
736.684	111.698
735.484	111.446
734.284	125.734
733.084	129.654
731.883	38.1859
730.682	64.9462
729.48	-1.581779
728.279	21.0315
727.077	-76.5317
725.875	33.079
724.673	59.7949
723.47	-64.644
722.268	61.4094
721.063	30.1235
719.86	-63.2354
718.656	-49.0134
717.452	124.401
716.248	-24.8002
715.043	-76.8136
713.838	-42.0473
712.633	-11.4633
711.427	85.1639
710.222	41.2919
709.015	-29.4305
707.809	85.5818
706.602	-14.0941
705.395	-14.7524
704.188	7.225306
702.979	43.5764
701.771	123.144
700.563	29.5031
699.355	-22.9435
698.146	11.093
696.938	34.7542
695.728	54.2254
694.519	3.633262
693.309	12.6807
692.098	-62.6956
690.888	38.7868
689.677	2.371877
688.466	-34.0976
687.254	15.7079
686.042	-88.7043
684.83	-24.6774
683.618	20.7576
682.405	-7.826823
681.192	-11.8385
679.979	-30.2923
678.766	25.0588
677.552	-32.5241
676.338	14.4432
675.124	1.848119
673.909	21.9845
672.694	89.174
671.479	51.7601
670.264	-12.3416
669.048	-56.0027
667.831	98.8958
666.615	-20.651
665.398	-7.182527
664.182	20.5357
662.964	-39.7792
661.746	10.3054
660.528	-13.2961
659.311	-55.3385
658.092	-9.539430
656.873	-16.9313
655.654	2.187575
654.435	-3.248602
653.215	54.5683
651.995	-6.059224
650.774	31.2622
649.555	44.0593
648.334	9.920732
647.112	71.6237
645.891	102.709
644.669	146.006
643.447	69.0657
642.225	165.331
641.002	243.236
639.779	380.178
638.557	629.046
637.333	835.097
636.109	1303.57
634.885	1377.24
633.66	1095.05
632.436	731.736
631.211	332.097
629.985	296.514
628.76	167.595
627.534	122.134
626.308	3.716488
625.082	127.094
623.854	128.78
622.628	96.1286
621.4	138.736
620.173	92.2675
618.945	-39.1433
617.717	-12.1414
616.488	-9.242563
615.26	-48.6515
614.03	-0.665428
612.801	-80.021
611.571	11.0435
610.341	-37.3018
609.11	68.519
607.88	49.1855
606.649	123.279
605.418	13.6867