File: Finalized Code/Tuned Standard Models/RAMAN Data MITACs/Bulk Carbon Ring Identification/Copy of PureCanolaOilnoBL.txt
#Wave		#Intensity
2964.05	2.136533
2961.92	8365.7
2959.79	13956.1
2957.65	17967.5
2955.52	21550.5
2953.38	24422.1
2951.25	28151.9
2949.11	34979.1
2946.97	44202.2
2944.83	56733.2
2942.69	70962.7
2940.56	86677.5
2938.42	100257
2936.28	109926
2934.13	117410
2931.99	123400
2929.85	126627
2927.71	129220
2925.56	131874
2923.42	134308
2921.28	136742
2919.13	140326
2916.98	144664
2914.84	149919
2912.69	155920
2910.54	162018
2908.39	168763
2906.25	174005
2904.1	178953
2901.95	182057
2899.8	183702
2897.64	185829
2895.49	186600
2893.34	186550
2891.19	184576
2889.03	180503
2886.88	174075
2884.72	164487
2882.57	154988
2880.41	146492
2878.25	140903
2876.1	137648
2873.94	136494
2871.78	133093
2869.62	127899
2867.46	125706
2865.3	127511
2863.14	134405
2860.98	142362
2858.82	151171
2856.65	161025
2854.49	170795
2852.32	176470
2850.16	170989
2847.99	151191
2845.83	120509
2843.66	89654.6
2841.49	65555.4
2839.33	49679.8
2837.16	39205.7
2834.99	31200.4
2832.82	25307.8
2830.65	20306.9
2828.48	15717
2826.31	12325.7
2824.13	9569.63
2821.96	7489.92
2819.79	6502.31
2817.61	4850.27
2815.44	3878.02
2813.26	3188.13
2811.09	3295.49
2808.91	2158.87
2806.73	1805.46
2804.56	1771.53
2802.38	1733.82
2800.2	1978.18
2798.02	1895.92
2795.84	2087.08
2793.66	1590.63
2791.48	959.5
2789.29	735.353
2787.11	774.132
2784.93	554.805
2782.74	282.97
2780.56	70.7377
2778.37	-23.5814
2776.19	-146.907
2774	343.432
2771.81	50.1857
2769.63	28.1157
2767.44	279.578
2765.25	407.458
2763.06	547.488
2760.87	585.034
2758.68	930.596
2756.49	1052.43
2754.3	1239.42
2752.1	1786.88
2749.91	1770.64
2747.72	2389.87
2745.52	3186.86
2743.33	3847.49
2741.13	4887.92
2738.93	5947.56
2736.74	6566.39
2734.54	7450.8
2732.34	8306.16
2730.14	9019.37
2727.94	9559.11
2725.74	9270.27
2723.54	9605.3
2721.34	9419.16
2719.14	8868.46
2716.94	8805.98
2714.73	8163.41
2712.53	8050.86
2710.32	6894.56
2708.12	6462.69
2705.91	6356.25
2703.71	5664.3
2701.5	5352.08
2699.29	5215.21
2697.08	4669.5
2694.88	4213.68
2692.67	4552.06
2690.46	4401.94
2688.24	4690.77
2686.03	4451.01
2683.82	4420.56
2681.61	4665.58
2679.39	4581.89
2677.18	4497.03
2674.97	4303.18
2672.75	4324.15
2670.54	3939.58
2668.32	3762.11
2666.1	3615.25
2663.88	3566.43
2661.67	3780.61
2659.45	3556.26
2657.23	3331.32
2655.01	3414.21
2652.79	3027.8
2650.56	3056.8
2648.34	2940.7
2646.12	2887.97
2643.9	2693.67
2641.67	2722.91
2639.45	2690.14
2637.22	2606.64
2635	2432.18
2632.77	2421.88
2630.54	2237.92
2628.31	2513.15
2626.08	2216.96
2623.86	2031.24
2621.63	1801.83
2619.4	1875.99
2617.17	2042.53
2614.93	2061.49
2612.7	1899.56
2610.47	2127.86
2608.23	2024.76
2606	2092.1
2603.77	1812.76
2601.53	1872.07
2599.29	1855.52
2597.06	1727.57
2594.82	1683.06
2592.58	1598.43
2590.34	1332.47
2588.1	1306.77
2585.86	1192.09
2583.62	1012.95
2581.38	1020.5
2579.14	1202.37
2576.9	881.092
2574.65	547.741
2572.41	720.569
2570.17	798.939
2567.92	409.196
2565.67	149.36
2563.43	306.393
2561.18	205.106
2558.93	471.629
2556.69	370.253
2554.44	408.398
2552.19	466.403
2549.94	195.666
2547.69	120.842
2545.43	439.693
2543.18	404.542
2540.93	673.268
2538.68	383.794
2536.42	210.393
2534.17	10.5214
2531.91	103.265
2529.66	387.902
2527.4	-7.384647
2525.14	-20.8827
2522.88	155.218
2520.62	306.871
2518.37	-56.3424
2516.11	-87.8238
2513.84	100.909
2511.58	30.627
2509.32	-190.54
2507.06	-168.479
2504.8	-45.3272
2502.53	158.998
2500.27	-22.8809
2498	95.2915
2495.74	206.661
2493.47	-189.751
2491.2	-0.674083
2488.94	65.1429
2486.67	-41.601
2484.4	5.213025
2482.13	-268.535
2479.86	-193.528
2477.59	-148.364
2475.32	9.515771
2473.04	22.4299
2470.77	191.826
2468.5	109.018
2466.22	108.18
2463.95	346.826
2461.67	94.9116
2459.4	-176.755
2457.12	97.2319
2454.84	385.043
2452.56	423.271
2450.29	243.797
2448	224.794
2445.73	328.939
2443.44	569.279
2441.16	183.852
2438.88	400.698
2436.6	382.663
2434.31	435.261
2432.03	820.088
2429.75	382.689
2427.46	577.243
2425.17	374.931
2422.89	377.214
2420.6	561.029
2418.31	746.661
2416.02	548.973
2413.73	407.69
2411.44	284.723
2409.15	244.185
2406.86	425.089
2404.57	334.036
2402.28	479.547
2399.98	301.147
2397.69	357.072
2395.4	228.19
2393.1	-2.790466
2390.8	217.214
2388.51	240.62
2386.21	300.596
2383.91	272.538
2381.61	12.4168
2379.31	42.4134
2377.01	251.881
2374.71	193.607
2372.41	22.643
2370.11	6.177282
2367.81	-113.232
2365.5	39.6363
2363.2	-40.2193
2360.9	-161.3
2358.59	40.4066
2356.29	278.499
2353.98	-33.2481
2351.67	-28.8466
2349.36	70.2971
2347.05	322.311
2344.74	35.9362
2342.44	142.931
2340.12	31.9946
2337.81	58.8366
2335.5	87.5798
2333.19	81.676
2330.88	-4.050814
2328.56	11.2287
2326.25	323.21
2323.93	130.45
2321.62	-125.793
2319.3	50.0113
2316.98	-76.3723
2314.66	133.346
2312.34	232.219
2310.03	163.371
2307.71	262.936
2305.38	363.365
2303.06	131.096
2300.74	87.5526
2298.42	-24.7122
2296.09	124.475
2293.77	79.5052
2291.45	338.674
2289.12	-23.488
2286.79	232.119
2284.47	-26.1628
2282.14	275.092
2279.81	-154.372
2277.48	197.931
2275.15	341.49
2272.82	-54.7018
2270.49	-28.7939
2268.16	382.585
2265.83	121.047
2263.5	-180.955
2261.16	12.2849
2258.83	160.564
2256.49	-301.241
2254.16	60.2043
2251.82	-364.068
2249.48	130.306
2247.15	253.727
2244.81	242.91
2242.47	89.4165
2240.13	-63.9642
2237.79	38.0784
2235.45	-72.6312
2233.11	-59.9229
2230.76	181.333
2228.42	-203.417
2226.08	-22.7457
2223.73	17.6828
2221.39	-68.2458
2219.04	-192.271
2216.69	-103.937
2214.35	199.74
2212	50.4608
2209.65	16.8906
2207.3	-156.475
2204.95	211.76
2202.6	207.022
2200.25	226.721
2197.9	280.362
2195.54	371.121
2193.19	369.873
2190.84	387.759
2188.48	321.166
2186.12	200.801
2183.77	450.48
2181.41	357.855
2179.05	253.779
2176.7	380.079
2174.34	187.66
2171.98	291.992
2169.62	34.5571
2167.26	183.45
2164.89	31.9189
2162.53	203.152
2160.17	213.213
2157.8	16.961
2155.44	190.611
2153.07	-83.1015
2150.71	-15.5173
2148.34	-104.554
2145.97	84.2885
2143.61	-135.821
2141.24	113.189
2138.87	162.55
2136.5	58.6664
2134.13	38.0117
2131.76	168.726
2129.38	98.0362
2127.01	72.6837
2124.64	285.647
2122.26	232.316
2119.89	223.233
2117.51	335.911
2115.13	28.5732
2112.76	26.4163
2110.38	139.652
2108	69.8129
2105.62	239.853
2103.24	221.663
2100.86	281.095
2098.48	157.725
2096.1	117.169
2093.71	142.686
2091.33	437.932
2088.95	5.243179
2086.56	334.139
2084.18	233.039
2081.79	229.23
2079.4	142.157
2077.02	410.924
2074.63	61.5462
2072.24	28.3769
2069.85	-9.826227
2067.46	90.7407
2065.06	124.819
2062.67	93.4544
2060.28	216.334
2057.89	-0.833156
2055.49	209.759
2053.1	68.9829
2050.7	65.6697
2048.31	-66.2845
2045.91	-14.0842
2043.51	136.883
2041.11	274.466
2038.71	287.628
2036.31	40.4926
2033.91	38.4907
2031.51	-6.863556
2029.11	-53.0649
2026.71	4.552423
2024.3	-17.479
2021.9	-85.9147
2019.49	-81.6477
2017.09	-66.9165
2014.68	116.661
2012.28	-150.723
2009.87	-166.505
2007.46	-387.873
2005.05	72.133
2002.64	118.741
2000.23	-200.207
1997.82	5.770537
1995.41	39.3546
1992.99	-343.887
1990.58	-2.499459
1988.17	-30.4362
1985.75	31.4925
1983.34	-158.041
1980.92	-53.6123
1978.5	-134.602
1976.08	112.08
1973.67	-26.3367
1971.25	23.8061
1968.83	138.827
1966.4	-61.8853
1963.98	-104.069
1961.56	-24.7797
1959.14	-314.435
1956.71	-68.5518
1954.29	-86.7004
1951.87	-260.815
1949.44	37.4021
1947.01	-25.705
1944.59	290.87
1942.16	-149.535
1939.73	128.051
1937.3	222.055
1934.87	73.2065
1932.44	106.833
1930.01	-48.9658
1927.57	285.691
1925.14	272.257
1922.71	296.701
1920.27	35.8266
1917.84	281.225
1915.4	364.985
1912.96	193.236
1910.53	98.2349
1908.09	246.364
1905.65	143.25
1903.21	304.513
1900.77	388.118
1898.33	144.271
1895.88	25.9978
1893.44	267.56
1891	275.613
1888.55	306.07
1886.11	444.415
1883.66	65.4237
1881.22	263.71
1878.77	77.2376
1876.32	210.255
1873.88	384.786
1871.43	273.519
1868.97	164.314
1866.52	342.622
1864.07	208.937
1861.62	284.414
1859.17	135.468
1856.71	473.634
1854.26	76.0042
1851.8	91.3377
1849.35	147.083
1846.89	214.888
1844.43	40.391
1841.97	-200.928
1839.52	64.0839
1837.06	-105.448
1834.6	288.71
1832.13	-23.6393
1829.67	323.518
1827.21	11.13
1824.75	-143.52
1822.28	41.3321
1819.82	373.417
1817.35	425.44
1814.88	370.313
1812.42	270.672
1809.95	436.32
1807.48	470.6
1805.01	528.941
1802.54	341.115
1800.07	411.245
1797.6	522.508
1795.12	231.726
1792.65	285.272
1790.18	268.201
1787.7	493.455
1785.23	250.722
1782.75	276.417
1780.27	292.936
1777.8	620.768
1775.32	974.375
1772.84	813.421
1770.36	793.951
1767.88	1203.89
1765.4	1236.14
1762.91	1586.18
1760.43	2553.56
1757.95	3325.69
1755.46	4252.5
1752.98	5268.73
1750.49	5957.67
1748	6280.55
1745.52	6321.82
1743.03	5945.62
1740.54	5435.45
1738.05	4426.4
1735.56	3407.79
1733.06	3003.26
1730.57	2091.26
1728.08	1809.86
1725.59	1375.71
1723.09	1099.34
1720.6	959.684
1718.1	1073.31
1715.6	969.276
1713.11	666.754
1710.61	1178.48
1708.11	1035.15
1705.61	1033.15
1703.11	929.41
1700.61	969.906
1698.1	1143.54
1695.6	1189.55
1693.1	1082.22
1690.59	974.804
1688.09	1023.31
1685.58	1125.27
1683.07	1222.02
1680.57	1833.9
1678.06	2156.37
1675.55	2785.12
1673.04	3802.2
1670.53	5215.19
1668.02	7315.2
1665.5	11325.6
1662.99	17732.2
1660.48	25296.5
1657.96	30456.7
1655.45	31204.5
1652.93	27922.2
1650.41	22529.6
1647.9	16546.8
1645.38	11725.3
1642.86	7991.87
1640.34	5500.62
1637.82	4075.58
1635.29	3290.17
1632.77	2607.77
1630.25	2134.88
1627.73	1879.19
1625.2	1774.44
1622.68	1359.07
1620.15	1068.04
1617.62	915.969
1615.09	869.312
1612.57	563.572
1610.04	570.966
1607.51	613.69
1604.97	518.552
1602.44	489.259
1599.91	419.594
1597.38	213.256
1594.84	243.748
1592.31	204.406
1589.77	110.03
1587.24	127.516
1584.7	285.276
1582.16	-40.8084
1579.62	43.1955
1577.08	-109.208
1574.54	203.989
1572	-35.6886
1569.46	61.6879
1566.91	13.0433
1564.37	-16.0505
1561.83	12.5764
1559.28	-121.261
1556.73	91.1629
1554.19	53.1272
1551.64	-153.032
1549.09	71.8036
1546.54	-128.425
1543.99	-9.237091
1541.44	-4.360763
1538.89	-31.7143
1536.34	-147.825
1533.79	306.634
1531.23	18.8907
1528.68	31.5036
1526.12	107.433
1523.56	204.76
1521.01	349.754
1518.45	401.199
1515.89	560.649
1513.33	581.889
1510.77	699.409
1508.21	718.679
1505.65	776.851
1503.08	898.163
1500.52	1032.07
1497.96	1395.07
1495.39	1661.78
1492.82	1732.36
1490.26	2090.08
1487.69	2751.16
1485.12	3193.74
1482.55	3879.35
1479.98	4803.9
1477.41	5992.35
1474.84	7765.87
1472.27	10033.9
1469.69	12664.5
1467.12	15523.6
1464.54	18978.7
1461.97	22993.3
1459.39	26420.8
1456.81	29563.1
1454.24	31636.4
1451.66	33044.1
1449.08	35800.4
1446.5	38386.2
1443.92	42009.3
1441.33	45137.5
1438.75	45943.5
1436.17	42235.2
1433.58	34627.8
1431	25392.9
1428.41	17510.8
1425.82	12495.1
1423.23	9854.44
1420.65	8636.18
1418.06	7490.93
1415.47	6448.4
1412.88	4971.35
1410.28	4003.53
1407.69	3859.44
1405.1	3834.6
1402.5	3683.21
1399.91	3293.16
1397.31	2788.38
1394.71	1882.31
1392.12	1411.15
1389.52	1055.38
1386.92	985.439
1384.32	1139.76
1381.72	1258.67
1379.11	1305.89
1376.51	1759.79
1373.91	2118.85
1371.3	2628.9
1368.7	2672.33
1366.09	2553.44
1363.48	2526.46
1360.88	2042.25
1358.27	2378.44
1355.66	2445.47
1353.05	2541.22
1350.44	2571.22
1347.83	2747.24
1345.21	2895.61
1342.6	3020.22
1339.99	3134.42
1337.37	3058.25
1334.76	3995.02
1332.14	4617.33
1329.52	5734.96
1326.9	6931.92
1324.28	8204.28
1321.66	9836.16
1319.04	10880
1316.42	12280.4
1313.8	14326.6
1311.17	17018.9
1308.55	19888.1
1305.92	22733.7
1303.3	25207.8
1300.67	25182.7
1298.04	23324.2
1295.42	20036.5
1292.79	16817.4
1290.16	14603.9
1287.53	13221
1284.89	12927.2
1282.26	13044.1
1279.63	14022.4
1276.99	14905.6
1274.36	16250.5
1271.72	17998.9
1269.08	19327
1266.45	19080.8
1263.81	19068.9
1261.17	18081.7
1258.53	16570.8
1255.89	14733.9
1253.24	12981.2
1250.6	10834
1247.96	9253.43
1245.31	7758.7
1242.67	6342.2
1240.02	5349.21
1237.38	4562.95
1234.73	3920.24
1232.08	3487.66
1229.43	2818.65
1226.78	2564.44
1224.13	2024.98
1221.47	1912.21
1218.82	1644.72
1216.17	1528.57
1213.51	1162.13
1210.86	1025.75
1208.2	942.954
1205.54	821.89
1202.88	875.208
1200.23	766.554
1197.57	866.82
1194.91	719.089
1192.24	589.317
1189.58	438.179
1186.92	448.971
1184.25	422.429
1181.59	381.011
1178.92	139.821
1176.26	163.115
1173.59	98.6789
1170.92	192.09
1168.25	57.8571
1165.58	-28.6522
1162.91	270.914
1160.24	-228.327
1157.57	-104.866
1154.89	-125.767
1152.22	-81.4088
1149.54	-37.0557
1146.87	226.018
1144.19	489.873
1141.51	145.52
1138.83	329.436
1136.15	398.982
1133.47	703.55
1130.79	801.835
1128.11	1411.61
1125.43	2180.69
1122.74	3080.12
1120.06	3570.05
1117.37	3715.74
1114.68	3758.53
1112	3520.6
1109.31	3570
1106.62	3487.96
1103.93	3980.85
1101.24	4662.25
1098.55	5635.58
1095.85	6683.25
1093.16	8272.02
1090.47	9580.72
1087.77	10674.3
1085.07	11666.6
1082.38	12306.6
1079.68	12715.5
1076.98	12170.2
1074.28	11472.2
1071.58	10831.9
1068.88	10497.1
1066.18	10911.8
1063.47	10602.3
1060.77	8704.65
1058.06	7198.6
1055.36	5942.99
1052.65	5306.5
1049.95	4453.47
1047.24	4478.17
1044.53	4044.33
1041.82	3965.52
1039.11	3806.04
1036.39	3749.58
1033.68	3333.49
1030.97	3694.97
1028.25	3525.19
1025.54	3648.2
1022.82	3249.65
1020.1	3223.53
1017.39	3163.64
1014.67	3032.53
1011.95	2626.97
1009.23	2567.76
1006.5	2161.09
1003.78	2074.01
1001.06	1838.1
998.334	1702.14
995.609	1598.39
992.883	1591.71
990.156	1641.8
987.428	2005.13
984.699	2342.84
981.969	2779.95
979.238	4308.5
976.508	5445.15
973.775	6462.79
971.043	6551.63
968.309	5897.48
965.572	4687.71
962.838	3814.73
960.1	3137.28
957.363	2382.23
954.625	2359.84
951.885	2071.39
949.145	2146.79
946.402	2208.77
943.66	2000.34
940.918	2046.44
938.174	1965.73
935.43	1953.34
932.684	1833.32
929.938	1739.9
927.189	1817.2
924.441	1977.15
921.691	1966.1
918.941	2096.55
916.189	2172
913.438	2282.95
910.686	2256.61
907.932	2110.32
905.176	2093.69
902.42	2200.24
899.664	2185.05
896.906	2433.85
894.148	2753.19
891.389	2900.26
888.629	3329.89
885.867	3150.82
883.105	2897.33
880.344	3159.79
877.58	3252.13
874.814	3766.23
872.049	3727.47
869.283	3926.63
866.516	4030.61
863.746	3874
860.979	3247.48
858.207	3079.25
855.438	3165.68
852.664	3212.89
849.893	3156.14
847.119	3298.13
844.344	3075.1
841.568	3025.63
838.791	2826.73
836.014	2275.01
833.236	2028.62
830.457	1793.44
827.676	1401.07
824.895	1048.61
822.113	1050.16
819.33	1006.36
816.547	952.982
813.762	959.808
810.977	821.145
808.189	704.269
805.402	516.208
802.613	391.014
799.824	305.367
797.035	310.978
794.244	204.383
791.451	-72.285
788.658	-10.7337
785.865	-208.439
783.07	-92.2412
780.273	-67.7044
777.477	28.1427
774.68	112.441
771.881	-38.9913
769.082	89.0274
766.281	145.911
763.48	130.787
760.678	80.1814
757.875	146.863
755.07	304.099
752.266	328.926
749.461	146.912
746.654	258.629
743.846	345.39
741.037	566.743
738.229	677.925
735.418	898.787
732.605	825.332
729.793	1035.94
726.98	1093.09
724.166	928.804
721.352	951.892
718.535	960.58
715.717	953.093
712.9	1044.22
710.08	983.086
707.262	768.818
704.441	432.517
701.619	535.527
698.797	456.302
695.973	273.52
693.148	250.818
690.322	232.939
687.496	375.755
684.67	128.632
681.842	54.5589
679.012	141.015
676.182	-60.0615
673.352	5.710382
670.52	-52.323
667.688	-214.761
664.854	-180.981
662.018	-179.591
659.182	1.888121
656.346	-160.805
653.508	-111.851
650.67	-255.044
647.83	-108.743
644.99	-33.5957
642.148	23.0514
639.307	-65.8624
636.463	78.1498
633.619	123.87
630.775	280.552
627.928	89.6477
625.082	45.585
622.234	273.274
619.385	306.553
616.535	390.233
613.686	505.907
610.834	723.401
607.98	824.374
605.127	716.416
602.273	832.398
599.418	838.116
596.561	755.463
593.703	648.997
590.846	794.029
587.986	592.897
585.127	686.691
582.266	626.925
579.402	533.817
576.541	387.393
573.676	305.113
570.811	177.399
567.945	157.237
565.078	69.9629
562.211	33.7491
559.342	71.1462
556.473	-51.3071
553.602	65.6038
550.73	-71.7256
547.857	-19.1665
544.984	-68.8932
542.111	85.0464
539.234	142.873
536.359	149.764
533.482	200.167
530.604	314.876
527.725	209.374
524.844	298.088
521.963	312.994
519.082	255.994
516.199	345.778
513.314	76.3459
510.43	269.884
507.545	265.119
504.658	399.639
501.77	371.653
498.881	317.673
495.992	559.3
493.102	572.665
490.209	557.959
487.316	570.493
484.424	589.785
481.529	413.013
478.633	330.414
475.738	75.6037
472.84	30.6016
469.941	57.1205
467.043	10.2063
464.143	-70.2789
461.242	-78.4535
458.34	-119.597
455.436	-39.8209
452.531	-82.439
449.627	-141.553
446.721	-134.491
443.814	10.1294
440.906	-174.93
437.998	-74.3446
435.088	30.5456
432.178	290.701
429.266	272.07
426.354	357.496
423.439	423.537