File: Finalized Code/Tuned Standard Models/RAMAN Data MITACs/Bulk Carbon Ring Identification/Copy of PureToluenenoBL.txt
#Wave		#Intensity
2964.05	-5.007612
2961.92	2889.57
2959.79	6670.24
2957.65	10172
2955.52	13902.8
2953.38	17397
2951.25	21066.1
2949.11	24668.9
2946.97	28050
2944.83	31469.3
2942.69	34892.5
2940.56	39180
2938.42	45923.9
2936.28	54117.2
2934.13	65907.9
2931.99	80943.7
2929.85	99878.9
2927.71	123970
2925.56	152142
2923.42	181395
2921.28	205637
2919.13	217322
2916.98	210631
2914.84	188107
2912.69	157166
2910.54	126964
2908.39	100504
2906.25	78064.7
2904.1	61168.9
2901.95	48507.9
2899.8	38893.6
2897.64	32767.5
2895.49	28931.5
2893.34	26691.9
2891.19	25638.6
2889.03	25852.9
2886.88	27363.7
2884.72	29857.2
2882.57	33248.9
2880.41	36649.9
2878.25	40314.2
2876.1	43144.9
2873.94	44917.5
2871.78	46288.3
2869.62	47032.1
2867.46	47557.8
2865.3	47357.3
2863.14	46885.6
2860.98	45445.3
2858.82	42083.6
2856.65	37578.7
2854.49	31954.7
2852.32	25403.5
2850.16	19851.8
2847.99	14704.4
2845.83	10868.2
2843.66	8198.78
2841.49	6034.48
2839.33	4254.69
2837.16	3470.13
2834.99	1915.67
2832.82	1761.27
2830.65	1226.38
2828.48	900.044
2826.31	1143.46
2824.13	568.053
2821.96	538.534
2819.79	225.178
2817.61	8.535956
2815.44	64.0166
2813.26	444.217
2811.09	506.951
2808.91	523.806
2806.73	401.419
2804.56	235.91
2802.38	24.1606
2800.2	151.377
2798.02	-9.646280
2795.84	71.3299
2793.66	6.234080
2791.48	-140.978
2789.29	-9.256729
2787.11	168.441
2784.93	745.84
2782.74	1387.48
2780.56	2410.39
2778.37	2668.07
2776.19	2027.96
2774	2162.85
2771.81	2042.99
2769.63	1982.82
2767.44	2139.5
2765.25	2013.54
2763.06	1919.25
2760.87	1911.28
2758.68	1877.14
2756.49	1921.53
2754.3	2372.79
2752.1	2438.02
2749.91	3044.07
2747.72	3986.32
2745.52	5572.04
2743.33	7648.82
2741.13	10837.8
2738.93	15676.6
2736.74	20032.1
2734.54	21501.6
2732.34	17982.1
2730.14	12569.2
2727.94	7793.84
2725.74	5036.13
2723.54	3169.85
2721.34	2345.93
2719.14	1713.22
2716.94	1591.57
2714.73	1408.78
2712.53	1157.08
2710.32	896.466
2708.12	1175.82
2705.91	1547.74
2703.71	1721.06
2701.5	1583.21
2699.29	1014.98
2697.08	572.692
2694.88	497.553
2692.67	296.849
2690.46	1.178491
2688.24	235.781
2686.03	51.0844
2683.82	-132.625
2681.61	-14.818
2679.39	-37.8178
2677.18	75.2328
2674.97	-0.665950
2672.75	200.064
2670.54	376.084
2668.32	688.118
2666.1	1156.33
2663.88	2018.65
2661.67	2458.78
2659.45	2196.62
2657.23	1378.63
2655.01	873.378
2652.79	760.238
2650.56	484.118
2648.34	549.422
2646.12	497.751
2643.9	550.978
2641.67	485.146
2639.45	260.101
2637.22	349.324
2635	280.54
2632.77	152.316
2630.54	384.001
2628.31	508.121
2626.08	563.922
2623.86	807.295
2621.63	1063.9
2619.4	1237.74
2617.17	1481.83
2614.93	2029.33
2612.7	2979.27
2610.47	4711.6
2608.23	6569.06
2606	6035.07
2603.77	5094.92
2601.53	3703.29
2599.29	3151.18
2597.06	2433.78
2594.82	2535.05
2592.58	3110.52
2590.34	4314.41
2588.1	5631.37
2585.86	6604.44
2583.62	6089.31
2581.38	5261.57
2579.14	4583.53
2576.9	3910.75
2574.65	3238.79
2572.41	2905.02
2570.17	2757.18
2567.92	2595.47
2565.67	2649.45
2563.43	2465.58
2561.18	2592.6
2558.93	2603.74
2556.69	3063.95
2554.44	3775.76
2552.19	4228.69
2549.94	3938.32
2547.69	3753.76
2545.43	2939.51
2543.18	2651.44
2540.93	2253.59
2538.68	1820.08
2536.42	1677.92
2534.17	1327.71
2531.91	1022.46
2529.66	889.04
2527.4	860.012
2525.14	530.458
2522.88	625.145
2520.62	506.506
2518.37	279.424
2516.11	188.589
2513.84	216.266
2511.58	392.08
2509.32	66.3969
2507.06	160.804
2504.8	-10.5051
2502.53	226.94
2500.27	-1.390280
2498	160.136
2495.74	6.751256
2493.47	72.6655
2491.2	262.133
2488.94	582.721
2486.67	500.833
2484.4	736.704
2482.13	424.456
2479.86	502.289
2477.59	489.617
2475.32	264.852
2473.04	395.783
2470.77	577.57
2468.5	1045.62
2466.22	950.051
2463.95	876.939
2461.67	862.369
2459.4	706.096
2457.12	519.783
2454.84	671.882
2452.56	553.313
2450.29	473.516
2448	540.612
2445.73	498.901
2443.44	728.419
2441.16	940.77
2438.88	1181.8
2436.6	1921.6
2434.31	2528.34
2432.03	2852.79
2429.75	2572.58
2427.46	2376.82
2425.17	2108.56
2422.89	1845.19
2420.6	2075.45
2418.31	2286.35
2416.02	2275.52
2413.73	2306.36
2411.44	1861.26
2409.15	1614.57
2406.86	1622.61
2404.57	1425.62
2402.28	1287.69
2399.98	1066.5
2397.69	1025.91
2395.4	1090.84
2393.1	1159.27
2390.8	1299.46
2388.51	1367.17
2386.21	1409.05
2383.91	1230.09
2381.61	883.531
2379.31	815.68
2377.01	916.968
2374.71	686.074
2372.41	531.27
2370.11	665.499
2367.81	474.33
2365.5	487.759
2363.2	594.23
2360.9	704.03
2358.59	731.792
2356.29	1081.46
2353.98	668.888
2351.67	684.009
2349.36	448.931
2347.05	333.782
2344.74	226.345
2342.44	322.731
2340.12	343.707
2337.81	324.881
2335.5	288.842
2333.19	216.276
2330.88	193.313
2328.56	49.861
2326.25	141.013
2323.93	121.344
2321.62	233.948
2319.3	170.207
2316.98	556.727
2314.66	533.705
2312.34	1016.51
2310.03	800.09
2307.71	356.244
2305.38	157.237
2303.06	161.044
2300.74	31.8236
2298.42	-36.2852
2296.09	-256.58
2293.77	-87.9365
2291.45	-38.3109
2289.12	21.8818
2286.79	76.6221
2284.47	-153.398
2282.14	48.8001
2279.81	88.2345
2277.48	18.501
2275.15	165.656
2272.82	143.821
2270.49	82.3268
2268.16	-35.8345
2265.83	254.85
2263.5	268.793
2261.16	307.158
2258.83	337.893
2256.49	158.414
2254.16	131.342
2251.82	197.926
2249.48	62.9478
2247.15	230.421
2244.81	149.554
2242.47	270.814
2240.13	398.249
2237.79	500.978
2235.45	165.303
2233.11	183.73
2230.76	-6.364286
2228.42	-21.1558
2226.08	-64.7938
2223.73	-12.974
2221.39	-28.2692
2219.04	96.3981
2216.69	79.7103
2214.35	153.024
2212	68.103
2209.65	361.536
2207.3	379.075
2204.95	306.362
2202.6	271.667
2200.25	40.9085
2197.9	-37.4517
2195.54	-57.7186
2193.19	-136.342
2190.84	-62.7924
2188.48	60.2528
2186.12	-160.499
2183.77	-4.037537
2181.41	-17.9124
2179.05	-40.4045
2176.7	-17.6381
2174.34	46.105
2171.98	-101.402
2169.62	155.03
2167.26	119.038
2164.89	85.0083
2162.53	62.4425
2160.17	238.865
2157.8	127.456
2155.44	6.490869
2153.07	0.182403
2150.71	113.694
2148.34	111.268
2145.97	142.345
2143.61	127.004
2141.24	53.7067
2138.87	100.102
2136.5	108.504
2134.13	145.13
2131.76	62.9514
2129.38	302.933
2127.01	208.955
2124.64	186.232
2122.26	344.83
2119.89	244.256
2117.51	382.576
2115.13	361.448
2112.76	273.175
2110.38	360.773
2108	121.593
2105.62	151.4
2103.24	59.7207
2100.86	-2.709174
2098.48	59.2372
2096.1	-42.0314
2093.71	40.5952
2091.33	84.4424
2088.95	56.0991
2086.56	142.546
2084.18	165.206
2081.79	70.9089
2079.4	114.283
2077.02	155.473
2074.63	-32.7673
2072.24	-13.5521
2069.85	1.407079
2067.46	-38.8925
2065.06	131.126
2062.67	244.764
2060.28	66.9183
2057.89	56.6395
2055.49	68.164
2053.1	6.861549
2050.7	17.2774
2048.31	-71.0461
2045.91	-169.722
2043.51	-86.6452
2041.11	57.6247
2038.71	36.7805
2036.31	92.6976
2033.91	166.215
2031.51	195.101
2029.11	160.729
2026.71	-30.1123
2024.3	-27.1071
2021.9	-23.0537
2019.49	-84.2148
2017.09	-204.345
2014.68	2.609309
2012.28	22.2279
2009.87	-140.162
2007.46	149.357
2005.05	23.2404
2002.64	133.847
2000.23	48.1591
1997.82	349.796
1995.41	627.541
1992.99	581.107
1990.58	625.539
1988.17	313.128
1985.75	341.211
1983.34	160.063
1980.92	62.564
1978.5	15.6347
1976.08	-73.4261
1973.67	-20.3059
1971.25	-19.6402
1968.83	96.3196
1966.4	133.08
1963.98	420.767
1961.56	461.655
1959.14	399.8
1956.71	432.578
1954.29	446.915
1951.87	88.615
1949.44	76.5101
1947.01	71.665
1944.59	-41.8284
1942.16	24.2842
1939.73	112.999
1937.3	224.285
1934.87	227.995
1932.44	378.267
1930.01	532.622
1927.57	680.818
1925.14	618.206
1922.71	476.933
1920.27	296.976
1917.84	68.1296
1915.4	36.7711
1912.96	105.649
1910.53	-160.476
1908.09	14.8153
1905.65	35.9245
1903.21	-3.115149
1900.77	157.923
1898.33	16.026
1895.88	127.184
1893.44	127.229
1891	-20.3973
1888.55	2.286983
1886.11	18.9227
1883.66	-197.528
1881.22	-23.9506
1878.77	-34.5584
1876.32	13.9238
1873.88	33.9589
1871.43	-13.029
1868.97	154.53
1866.52	35.5489
1864.07	-20.3253
1861.62	-54.78
1859.17	-29.2501
1856.71	92.7412
1854.26	67.6058
1851.8	22.2907
1849.35	-35.127
1846.89	227.827
1844.43	-30.1167
1841.97	-60.952
1839.52	164.46
1837.06	81.0293
1834.6	234.508
1832.13	144.116
1829.67	189.351
1827.21	148.651
1824.75	328.344
1822.28	272.537
1819.82	254.162
1817.35	270.149
1814.88	420.424
1812.42	361.714
1809.95	313.153
1807.48	443.15
1805.01	338.153
1802.54	475.119
1800.07	359.086
1797.6	585.636
1795.12	715.358
1792.65	922.505
1790.18	1155.69
1787.7	1310.23
1785.23	1007.01
1782.75	762.243
1780.27	779.988
1777.8	616.781
1775.32	579.221
1772.84	426.158
1770.36	617.505
1767.88	501.55
1765.4	454.838
1762.91	561.575
1760.43	687.245
1757.95	639.339
1755.46	537.266
1752.98	771.792
1750.49	652.559
1748	488.251
1745.52	769.373
1743.03	821.079
1740.54	828.649
1738.05	874.102
1735.56	843.434
1733.06	1245.42
1730.57	1139.49
1728.08	1072.45
1725.59	926.453
1723.09	1045.92
1720.6	1092.33
1718.1	1112.63
1715.6	1131.77
1713.11	1066
1710.61	1158.58
1708.11	1030.76
1705.61	1343.08
1703.11	1276.66
1700.61	1420.14
1698.1	1499.66
1695.6	1424.74
1693.1	1508.8
1690.59	1894.85
1688.09	2057.82
1685.58	2223.46
1683.07	2267.6
1680.57	2441.58
1678.06	2581.48
1675.55	2453.14
1673.04	2348.44
1670.53	2399.28
1668.02	2242.64
1665.5	2354.43
1662.99	2490.68
1660.48	2578.05
1657.96	2698.77
1655.45	2989.42
1652.93	3269.72
1650.41	3628.71
1647.9	3940.73
1645.38	4317.52
1642.86	4657.22
1640.34	5506.25
1637.82	6276.43
1635.29	7356.88
1632.77	9019.75
1630.25	11361.2
1627.73	14329.3
1625.2	16755.8
1622.68	18873.9
1620.15	20678.9
1617.62	23130.7
1615.09	27416.7
1612.57	35572.6
1610.04	51442.7
1607.51	78600.8
1604.97	99450.5
1602.44	90401
1599.91	64421.6
1597.38	45189.6
1594.84	35585.6
1592.31	33705.6
1589.77	41082.4
1587.24	53805.1
1584.7	56842.6
1582.16	46171.7
1579.62	33536.9
1577.08	24491
1574.54	18640.7
1572	15038.3
1569.46	12576
1566.91	10370.4
1564.37	9081.1
1561.83	7890.04
1559.28	7151.31
1556.73	6701.15
1554.19	6352.55
1551.64	6115.2
1549.09	5818
1546.54	5458.08
1543.99	5309.87
1541.44	5260.93
1538.89	5046.7
1536.34	5050.72
1533.79	5033.87
1531.23	5080.96
1528.68	4914.19
1526.12	5122.23
1523.56	5203.12
1521.01	5255.32
1518.45	5383.99
1515.89	5303.93
1513.33	5546.49
1510.77	5803.09
1508.21	5891.92
1505.65	6072.62
1503.08	6915.43
1500.52	7937
1497.96	9611
1495.39	10280.9
1492.82	9403.17
1490.26	8125.96
1487.69	7650.18
1485.12	7467.1
1482.55	7229.47
1479.98	7515.76
1477.41	7795.67
1474.84	8223.18
1472.27	8537.76
1469.69	9054.01
1467.12	9405.12
1464.54	9902.64
1461.97	10422.7
1459.39	10862.8
1456.81	11610.5
1454.24	12315.8
1451.66	12845.6
1449.08	13719.2
1446.5	14319.9
1443.92	15042.4
1441.33	15281
1438.75	15592.3
1436.17	15360.7
1433.58	14750.2
1431	13593.7
1428.41	12622.6
1425.82	11429.4
1423.23	10487.8
1420.65	9338.7
1418.06	8719.89
1415.47	7869.53
1412.88	7101.11
1410.28	6803.62
1407.69	6521.41
1405.1	6372.58
1402.5	6185.21
1399.91	6444.79
1397.31	6761.53
1394.71	7674.22
1392.12	9355.78
1389.52	11826.6
1386.92	14852.2
1384.32	22519
1381.72	36337.1
1379.11	45153.7
1376.51	37183.3
1373.91	23770.1
1371.3	15473.7
1368.7	11122
1366.09	8446.98
1363.48	6629.32
1360.88	5362.68
1358.27	4707.66
1355.66	4157.88
1353.05	3679.89
1350.44	3293.67
1347.83	2967.63
1345.21	2847.61
1342.6	2891.44
1339.99	3205.66
1337.37	3894.77
1334.76	5579.97
1332.14	6731.19
1329.52	6093.33
1326.9	4506.82
1324.28	3390.91
1321.66	3073.01
1319.04	3064.09
1316.42	3649.71
1313.8	4231.17
1311.17	4129.88
1308.55	3356.93
1305.92	2592.1
1303.3	1704.57
1300.67	1179.75
1298.04	1094.06
1295.42	673.2
1292.79	639.043
1290.16	414.749
1287.53	434.867
1284.89	363.31
1282.26	614.449
1279.63	658.511
1276.99	413.453
1274.36	442.732
1271.72	344.628
1269.08	148.562
1266.45	22.6495
1263.81	47.0613
1261.17	24.4951
1258.53	-73.3009
1255.89	232.695
1253.24	560.392
1250.6	770.35
1247.96	930.491
1245.31	1015.46
1242.67	821.095
1240.02	866.117
1237.38	932.089
1234.73	841.259
1232.08	970.763
1229.43	1136.19
1226.78	1766.86
1224.13	2513.9
1221.47	3779.03
1218.82	6503.14
1216.17	14214.5
1213.51	42719.3
1210.86	83522.2
1208.2	73183.9
1205.54	36174
1202.88	17072.5
1200.23	10756.8
1197.57	8807.01
1194.91	8139.12
1192.24	7917.37
1189.58	8913.86
1186.92	11543.5
1184.25	16572.9
1181.59	24239
1178.92	29438.5
1176.26	24748.7
1173.59	17078.2
1170.92	12601.6
1168.25	11290.7
1165.58	12079.2
1162.91	15579.6
1160.24	22080.9
1157.57	31005.4
1154.89	33655.8
1152.22	25841.1
1149.54	15864.3
1146.87	9889.71
1144.19	6514.52
1141.51	4418.67
1138.83	3244.91
1136.15	2584.42
1133.47	2078.16
1130.79	1599.66
1128.11	1134.07
1125.43	676.715
1122.74	393.669
1120.06	358.956
1117.37	412.869
1114.68	357.911
1112	412.849
1109.31	530.339
1106.62	635.32
1103.93	501.026
1101.24	406.215
1098.55	393.4
1095.85	189.704
1093.16	592.175
1090.47	841.507
1087.77	1244.57
1085.07	1931.42
1082.38	2541.72
1079.68	2411.95
1076.98	1979.25
1074.28	1143.35
1071.58	900.465
1068.88	752.269
1066.18	568.74
1063.47	803.122
1060.77	878.553
1058.06	923.133
1055.36	1290.27
1052.65	1664.1
1049.95	2156.8
1047.24	2642.32
1044.53	3353.17
1041.82	4122.83
1039.11	5706.21
1036.39	9730.41
1033.68	34665
1030.97	85415.1
1028.25	70806.9
1025.54	24904.2
1022.82	11067.5
1020.1	7876.56
1017.39	6763.93
1014.67	7856.71
1011.95	12299.8
1009.23	29207
1006.5	125377
1003.78	304195
1001.06	224340
998.334	66298.2
995.609	24020.7
992.883	16822.6
990.156	14240.6
987.428	9381.3
984.699	5652.45
981.969	4392.03
979.238	3866.78
976.508	3614.72
973.775	3295.66
971.043	2885.04
968.309	2652.53
965.572	2165.5
962.838	1640.75
960.1	1243.05
957.363	866.692
954.625	609.888
951.885	554.31
949.145	310.833
946.402	304.752
943.66	120.824
940.918	-82.8364
938.174	88.5347
935.43	195.477
932.684	199.97
929.938	132.907
927.189	75.0205
924.441	-11.7795
921.691	-76.7414
918.941	-53.8272
916.189	-6.471023
913.438	23.65
910.686	163.169
907.932	261.887
905.176	817.881
902.42	1301.16
899.664	2578.04
896.906	3744.76
894.148	3845.4
891.389	2873.8
888.629	1814.29
885.867	1001.56
883.105	542.6
880.344	476.715
877.58	452.154
874.814	402.214
872.049	504.261
869.283	452.114
866.516	455.575
863.746	512.775
860.979	550.786
858.207	771.013
855.438	1194.78
852.664	1821.03
849.893	3071.56
847.119	4714.17
844.344	6262.06
841.568	6584.95
838.791	5696.6
836.014	4342.29
833.236	3184.79
830.457	2424.59
827.676	1918.89
824.895	1712.18
822.113	1836.39
819.33	2453.13
816.547	3680.88
813.762	5075.51
810.977	6737.87
808.189	6556.15
805.402	5805.99
802.613	5182.69
799.824	5393.14
797.035	6706.9
794.244	10311.2
791.451	25475.1
788.658	89300.7
785.865	149409
783.07	90644
780.273	35234.7
777.477	14332.3
774.68	6521.74
771.881	3450.34
769.082	2484.09
766.281	1774.99
763.48	1530.77
760.678	1184.95
757.875	1119.6
755.07	1000.55
752.266	825.186
749.461	992.032
746.654	971.133
743.846	1257.54
741.037	1757.86
738.229	2781.19
735.418	4495.37
732.605	6438.27
729.793	7370.14
726.98	5893.53
724.166	3924.67
721.352	2375.09
718.535	1507.89
715.717	1144.74
712.9	829.179
710.08	661.891
707.262	515.575
704.441	512.045
701.619	549.692
698.797	538.505
695.973	658.452
693.148	597.333
690.322	560.689
687.496	327.376
684.67	207.621
681.842	170.514
679.012	179.903
676.182	43.0768
673.352	90.9124
670.52	-33.738
667.688	101.776
664.854	-93.2652
662.018	44.6788
659.182	-30.8831
656.346	225.408
653.508	465.742
650.67	623.488
647.83	839.059
644.99	1304.41
642.148	1883.49
639.307	2698.84
636.463	3922.79
633.619	6305.27
630.775	10708.1
627.928	18663.1
625.082	30427.3
622.234	37363.7
619.385	31750.5
616.535	20872.5
613.686	12529.8
610.834	7457.04
607.98	4649.66
605.127	3055.72
602.273	2079.98
599.418	1482.93
596.561	927.702
593.703	708.836
590.846	501.939
587.986	213.836
585.127	213.757
582.266	-11.1773
579.402	79.5574
576.541	-123.158
573.676	36.5528
570.811	-35.2968
567.945	-94.3161
565.078	-75.3586
562.211	69.2559
559.342	219.633
556.473	280.314
553.602	313.853
550.73	406.119
547.857	603.869
544.984	919.119
542.111	1518.94
539.234	1944.08
536.359	2955.63
533.482	4417.15
530.604	7275.5
527.725	14278.6
524.844	33007.2
521.963	59872.3
519.082	51328.4
516.199	26027.8
513.314	12277.9
510.43	6575.01
507.545	3772.81
504.658	2439.97
501.77	1679.08
498.881	1155.03
495.992	733.976
493.102	498.441
490.209	504.144
487.316	207.553
484.424	240.535
481.529	323.093
478.633	483.456
475.738	705.942
472.84	1390.9
469.941	2818.68
467.043	5136.98
464.143	5800.84
461.242	3742.33
458.34	1924.12
455.436	953.08
452.531	305.151
449.627	84.4099
446.721	47.7531
443.814	57.7404
440.906	31.0598
437.998	-53.8754
435.088	34.6646
432.178	8.837251
429.266	-15.2
426.354	-128.325
423.439	-4.283346