File: Finalized Code/Tuned Standard Models/RAMAN Data MITACs/Bulk Carbon Ring Identification/Copy of PureCyclohexane.txt
#Wave		#Intensity
2964.05	40827.9
2961.92	44713.9
2959.79	48903.5
2957.65	53955.2
2955.52	60122.5
2953.38	67510.6
2951.25	76909.9
2949.11	90471.1
2946.97	108976
2944.83	138443
2942.69	182161
2940.56	237528
2938.42	269880
2936.28	253542
2934.13	215511
2931.99	193030
2929.85	194658
2927.71	218874
2925.56	252500
2923.42	268423
2921.28	246233
2919.13	207297
2916.98	174239
2914.84	149072
2912.69	131399
2910.54	118489
2908.39	109919
2906.25	104773
2904.1	103238
2901.95	104427
2899.8	106934
2897.64	108928
2895.49	107865
2893.34	104632
2891.19	102851
2889.03	103577
2886.88	101944
2884.72	93483
2882.57	83471.7
2880.41	76071.2
2878.25	73939.3
2876.1	74479.2
2873.94	77764.9
2871.78	81052.1
2869.62	81678.4
2867.46	81490.3
2865.3	84227.4
2863.14	95244.7
2860.98	117067
2858.82	155523
2856.65	217344
2854.49	287503
2852.32	311469
2850.16	263015
2847.99	189532
2845.83	132291
2843.66	93689.3
2841.49	69558.9
2839.33	54055.2
2837.16	44365.9
2834.99	37596.7
2832.82	33109.2
2830.65	29887.5
2828.48	27252.5
2826.31	25235.9
2824.13	23069.1
2821.96	21282.9
2819.79	19844.8
2817.61	19148.6
2815.44	18307.3
2813.26	17725.2
2811.09	17078.2
2808.91	16572.2
2806.73	16151.2
2804.56	16496.5
2802.38	17077.1
2800.2	17980.7
2798.02	17698
2795.84	16681.1
2793.66	15425
2791.48	15144.4
2789.29	14706.5
2787.11	14402.3
2784.93	14156.4
2782.74	13919.8
2780.56	13748.3
2778.37	13622.5
2776.19	13481.9
2774	13669.4
2771.81	13551.7
2769.63	13424.9
2767.44	13355.1
2765.25	13231.9
2763.06	13179.2
2760.87	13027.7
2758.68	12964.9
2756.49	12929.4
2754.3	12786
2752.1	12705.1
2749.91	12641.4
2747.72	12628.7
2745.52	12761.3
2743.33	12720.2
2741.13	12748.4
2738.93	12769.7
2736.74	12734.3
2734.54	12709.2
2732.34	12818.8
2730.14	12970.3
2727.94	12967.8
2725.74	13021.8
2723.54	13086
2721.34	13126.4
2719.14	13158.8
2716.94	13559.8
2714.73	13829.4
2712.53	14155.4
2710.32	14420.2
2708.12	15215.6
2705.91	15772.3
2703.71	16731.6
2701.5	18590.6
2699.29	21514.4
2697.08	21828.6
2694.88	20216
2692.67	18949.2
2690.46	19111.7
2688.24	19282
2686.03	19117.7
2683.82	18217.4
2681.61	17477.4
2679.39	17395.9
2677.18	17917.3
2674.97	18936.5
2672.75	20409.3
2670.54	22391.3
2668.32	25327.2
2666.1	29799.9
2663.88	31151.1
2661.67	27331.5
2659.45	23081
2657.23	20219.4
2655.01	18316.1
2652.79	16982.3
2650.56	15954.2
2648.34	15467.8
2646.12	15032.1
2643.9	14780.3
2641.67	14757.1
2639.45	14827.9
2637.22	15881
2635	19656.3
2632.77	21229.8
2630.54	17702.1
2628.31	15855.1
2626.08	15392.5
2623.86	15351.2
2621.63	15102.3
2619.4	15140.4
2617.17	15177.4
2614.93	15241.1
2612.7	15502.3
2610.47	16095.5
2608.23	16424.3
2606	16557.8
2603.77	16824.9
2601.53	16878
2599.29	16428.9
2597.06	16131.5
2594.82	15901
2592.58	15389.1
2590.34	15215.6
2588.1	15140.1
2585.86	15014.6
2583.62	15462.6
2581.38	15644.9
2579.14	15632.6
2576.9	15447.2
2574.65	15077.6
2572.41	14818
2570.17	14427.7
2567.92	14116.4
2565.67	14286.4
2563.43	14251.3
2561.18	14167.4
2558.93	14044.9
2556.69	14078.5
2554.44	14156.4
2552.19	14253.1
2549.94	14167.1
2547.69	14051.3
2545.43	14350.3
2543.18	14327.4
2540.93	14296.8
2538.68	14354.6
2536.42	14309.6
2534.17	14706.4
2531.91	14934
2529.66	15072.1
2527.4	15322.7
2525.14	15061.3
2522.88	14814.4
2520.62	14540
2518.37	14502.8
2516.11	14600
2513.84	14772.1
2511.58	14780
2509.32	14730.6
2507.06	14715.4
2504.8	14554.9
2502.53	14743.2
2500.27	14678.5
2498	14673.2
2495.74	14721.7
2493.47	14858.1
2491.2	14831.9
2488.94	14928.7
2486.67	15134
2484.4	15116.5
2482.13	14880.7
2479.86	14922.5
2477.59	14929.2
2475.32	15082.7
2473.04	15269.1
2470.77	15304.1
2468.5	15411.4
2466.22	15482.6
2463.95	15911.6
2461.67	16125.8
2459.4	16667.1
2457.12	16661.2
2454.84	16691.4
2452.56	16417.7
2450.29	16115.8
2448	15949.5
2445.73	15864.1
2443.44	15818
2441.16	15729.4
2438.88	15671.4
2436.6	15532.7
2434.31	15496.6
2432.03	15446.4
2429.75	15548.8
2427.46	15599.8
2425.17	15514.7
2422.89	15546.2
2420.6	15561.3
2418.31	15426.2
2416.02	15514.3
2413.73	15608.8
2411.44	15448.8
2409.15	15638.9
2406.86	15569.2
2404.57	15461.5
2402.28	15410.3
2399.98	15726.2
2397.69	15711.9
2395.4	15590.1
2393.1	15462
2390.8	15801.3
2388.51	15671
2386.21	15805.2
2383.91	15787.6
2381.61	15998.6
2379.31	16113.1
2377.01	16323.9
2374.71	16415.5
2372.41	16591.4
2370.11	16631
2367.81	16696.5
2365.5	16551.1
2363.2	16711.7
2360.9	16552.3
2358.59	16667.4
2356.29	17047
2353.98	17222.3
2351.67	17495.8
2349.36	17745.3
2347.05	17583.8
2344.74	17464.4
2342.44	17164
2340.12	16862.7
2337.81	16751.1
2335.5	16762.4
2333.19	16685.4
2330.88	16713.9
2328.56	16753.2
2326.25	16803.2
2323.93	16939.2
2321.62	16769.8
2319.3	16757.4
2316.98	16824.5
2314.66	17043.1
2312.34	16909.3
2310.03	16740.1
2307.71	16893
2305.38	17000.7
2303.06	16972.2
2300.74	16794.6
2298.42	16978.4
2296.09	16695.9
2293.77	17203.2
2291.45	17043.9
2289.12	17096.8
2286.79	17076.8
2284.47	16919.9
2282.14	17189.9
2279.81	17162.4
2277.48	17236.6
2275.15	17294.6
2272.82	17346.2
2270.49	17403.1
2268.16	17385.2
2265.83	17429.2
2263.5	17568.2
2261.16	17566.3
2258.83	17755.3
2256.49	17851.5
2254.16	18150.1
2251.82	17989.2
2249.48	18181
2247.15	18198.1
2244.81	18052.2
2242.47	18263
2240.13	18065.1
2237.79	18222.6
2235.45	18250.2
2233.11	18288.5
2230.76	18659.4
2228.42	18801.7
2226.08	18810
2223.73	18852.3
2221.39	18873.3
2219.04	18578
2216.69	18567.2
2214.35	18873.7
2212	18744.1
2209.65	18853.1
2207.3	18905.8
2204.95	18663
2202.6	18656.4
2200.25	18631.9
2197.9	18522.7
2195.54	18617.8
2193.19	18650.4
2190.84	18643.9
2188.48	18665.9
2186.12	18477.5
2183.77	18512.3
2181.41	18894.6
2179.05	19021
2176.7	18886.6
2174.34	18989.8
2171.98	19022.2
2169.62	18915.3
2167.26	18994.1
2164.89	19415.5
2162.53	19446.7
2160.17	19392.5
2157.8	19554.3
2155.44	19460.1
2153.07	19441.7
2150.71	19410.7
2148.34	19441.8
2145.97	19566.5
2143.61	19477.7
2141.24	19580.2
2138.87	19611.2
2136.5	19698.9
2134.13	19683.7
2131.76	19624.3
2129.38	19732.9
2127.01	19866.7
2124.64	19963.6
2122.26	19997.5
2119.89	20032.5
2117.51	20272.9
2115.13	20218.7
2112.76	20126.8
2110.38	20300
2108	20200.8
2105.62	20340.3
2103.24	20283
2100.86	20232
2098.48	20400.6
2096.1	20340.2
2093.71	20176.4
2091.33	20803.5
2088.95	20388
2086.56	20541.7
2084.18	20620.1
2081.79	20897.8
2079.4	20635
2077.02	20744.6
2074.63	20943.9
2072.24	20935.6
2069.85	20735.6
2067.46	21028.3
2065.06	20978.4
2062.67	21278.2
2060.28	21244.8
2057.89	21355
2055.49	21503.6
2053.1	21477.5
2050.7	21659.2
2048.31	21427.3
2045.91	21542.5
2043.51	21464.4
2041.11	21572.2
2038.71	21558.5
2036.31	21542.8
2033.91	21565.4
2031.51	21737.3
2029.11	21593
2026.71	21764.8
2024.3	21771.8
2021.9	21759.1
2019.49	21806.4
2017.09	21861
2014.68	22080
2012.28	22064.1
2009.87	22022.4
2007.46	22086.1
2005.05	22088.8
2002.64	22231
2000.23	22078.7
1997.82	22333.4
1995.41	22643.6
1992.99	22377.8
1990.58	22719.8
1988.17	22693.4
1985.75	22711.4
1983.34	22955.1
1980.92	22809.1
1978.5	23063.9
1976.08	23081.7
1973.67	23245.7
1971.25	23161.6
1968.83	23157.7
1966.4	23296.8
1963.98	23296
1961.56	23317.8
1959.14	23024.1
1956.71	23293.5
1954.29	23230.1
1951.87	23476.7
1949.44	23457.3
1947.01	23238.9
1944.59	23436.1
1942.16	23382.9
1939.73	23777.7
1937.3	23435.4
1934.87	23332.1
1932.44	23427.5
1930.01	23526.9
1927.57	23668.3
1925.14	23662.2
1922.71	23673.5
1920.27	23666.3
1917.84	23537.6
1915.4	23574.4
1912.96	23800.3
1910.53	23782.9
1908.09	23759.4
1905.65	23688.9
1903.21	23853.2
1900.77	23965.4
1898.33	23776.6
1895.88	23781.7
1893.44	23836.7
1891	23799.9
1888.55	24006.7
1886.11	23863
1883.66	23696.9
1881.22	24078.6
1878.77	24083.5
1876.32	23890.1
1873.88	23978.4
1871.43	23944.7
1868.97	23975.1
1866.52	23939.4
1864.07	23926.1
1861.62	23777.7
1859.17	23896.3
1856.71	23867.8
1854.26	23746.9
1851.8	23930.4
1849.35	23691
1846.89	23905.7
1844.43	23877.2
1841.97	23634
1839.52	23826.3
1837.06	23954.7
1834.6	23650.9
1832.13	23708.5
1829.67	23719.5
1827.21	23490.8
1824.75	23453.4
1822.28	23525.1
1819.82	23472.5
1817.35	23526.9
1814.88	23498.6
1812.42	23288.6
1809.95	23616.4
1807.48	23294.5
1805.01	23204.8
1802.54	23368.1
1800.07	23194.7
1797.6	23249.1
1795.12	23261.1
1792.65	23241.9
1790.18	23029.5
1787.7	23108
1785.23	23189.5
1782.75	22947.1
1780.27	22977.3
1777.8	23101.9
1775.32	23213.4
1772.84	22941.2
1770.36	23080.8
1767.88	22989.4
1765.4	23052.6
1762.91	22971.3
1760.43	23024.5
1757.95	22761.8
1755.46	22727.8
1752.98	22864.1
1750.49	22774
1748	22655.8
1745.52	22766
1743.03	22687
1740.54	22458
1738.05	22556.1
1735.56	22359.2
1733.06	22402.3
1730.57	22517.4
1728.08	22305.7
1725.59	22299.8
1723.09	22339.9
1720.6	22310.1
1718.1	22361.1
1715.6	22369.2
1713.11	22276.6
1710.61	22457.1
1708.11	22114.4
1705.61	22094.7
1703.11	22050.1
1700.61	22124.9
1698.1	22173.8
1695.6	22414.7
1693.1	22483.4
1690.59	22145.4
1688.09	22073
1685.58	22198.3
1683.07	22034.5
1680.57	22041.7
1678.06	21923.7
1675.55	21914.9
1673.04	21773.3
1670.53	21596
1668.02	21671.6
1665.5	21581.6
1662.99	21414.5
1660.48	21357.3
1657.96	21576.5
1655.45	21366.9
1652.93	21379.1
1650.41	21497.2
1647.9	21377.8
1645.38	21044.9
1642.86	21348.7
1640.34	21310.5
1637.82	21370.1
1635.29	21189.7
1632.77	21113
1630.25	21137.1
1627.73	21253.8
1625.2	21274.9
1622.68	20935
1620.15	21182.8
1617.62	21298.4
1615.09	21357.8
1612.57	21118.8
1610.04	21132
1607.51	21108.7
1604.97	21004.7
1602.44	21044.4
1599.91	21204
1597.38	21123.7
1594.84	21146.7
1592.31	21347.3
1589.77	21201.3
1587.24	21272.2
1584.7	21391.2
1582.16	21228.6
1579.62	21245.5
1577.08	21229.1
1574.54	21186.2
1572	21287.4
1569.46	21395.4
1566.91	21233
1564.37	21357.6
1561.83	21124.8
1559.28	21009.7
1556.73	21144.9
1554.19	21138.3
1551.64	21188.4
1549.09	21198.4
1546.54	21125.4
1543.99	21182.3
1541.44	21278.1
1538.89	21491.1
1536.34	21295.1
1533.79	21427.9
1531.23	21338.3
1528.68	21284.9
1526.12	21264.6
1523.56	21472.2
1521.01	21213.3
1518.45	21453.9
1515.89	21408.3
1513.33	21548.4
1510.77	21596.2
1508.21	21569
1505.65	21900.4
1503.08	21891.6
1500.52	21942.1
1497.96	22256.6
1495.39	22469
1492.82	22584.2
1490.26	23081.5
1487.69	23558.2
1485.12	23938.6
1482.55	23873.9
1479.98	24003
1477.41	24357.7
1474.84	24790.6
1472.27	25407.1
1469.69	26419.9
1467.12	28116.1
1464.54	29023.9
1461.97	29263.3
1459.39	30761.6
1456.81	33313.1
1454.24	36804.6
1451.66	42397.7
1449.08	49567.3
1446.5	58238.5
1443.92	62303.2
1441.33	57066.9
1438.75	47850.6
1436.17	40884.6
1433.58	36363.2
1431	34136.7
1428.41	32575.9
1425.82	31311.5
1423.23	29718.9
1420.65	27784.8
1418.06	26616.4
1415.47	25631.4
1412.88	24706.6
1410.28	24122.4
1407.69	24020.7
1405.1	23579.1
1402.5	23472.8
1399.91	23177.6
1397.31	23117.5
1394.71	22928
1392.12	23106.7
1389.52	22941.3
1386.92	22913
1384.32	23056
1381.72	23058.3
1379.11	22906.5
1376.51	22931.8
1373.91	22993.4
1371.3	23460.3
1368.7	23384
1366.09	23567.7
1363.48	24103.7
1360.88	24255.5
1358.27	25127
1355.66	26202.1
1353.05	27666.7
1350.44	28778.5
1347.83	29460.5
1345.21	28993.7
1342.6	28100.3
1339.99	26588.4
1337.37	25648.8
1334.76	25162.8
1332.14	24610.5
1329.52	24246
1326.9	24239.2
1324.28	23983.4
1321.66	23933
1319.04	23978.6
1316.42	24212.2
1313.8	23925.3
1311.17	24026.8
1308.55	24083.7
1305.92	24277.1
1303.3	24671.4
1300.67	25080.6
1298.04	25356.9
1295.42	25611.2
1292.79	26357.8
1290.16	27329.2
1287.53	27923.4
1284.89	29266.4
1282.26	30734.4
1279.63	33284
1276.99	36659
1274.36	41796
1271.72	49710.5
1269.08	59228.1
1266.45	63472.1
1263.81	57987
1261.17	47981.9
1258.53	40004.2
1255.89	35254.9
1253.24	32239
1250.6	30116.4
1247.96	28693
1245.31	27697
1242.67	26833.5
1240.02	26257.5
1237.38	26052.5
1234.73	25763.9
1232.08	25425.7
1229.43	25412.9
1226.78	25239.4
1224.13	24932.6
1221.47	24781.9
1218.82	24737.4
1216.17	24876.7
1213.51	24791.8
1210.86	24734.2
1208.2	24844.3
1205.54	24882.3
1202.88	24748.8
1200.23	24827
1197.57	24740.3
1194.91	24689.3
1192.24	24808.6
1189.58	24785.7
1186.92	24703.9
1184.25	24947.3
1181.59	24853.3
1178.92	24753.8
1176.26	25082
1173.59	25404.4
1170.92	25524.9
1168.25	25935.6
1165.58	26279.7
1162.91	27892.4
1160.24	31288.7
1157.57	33075.7
1154.89	30051.3
1152.22	28000.8
1149.54	27172.7
1146.87	26788
1144.19	26318
1141.51	26346.7
1138.83	26089.1
1136.15	25938.5
1133.47	26198.6
1130.79	26098.2
1128.11	26206.8
1125.43	25997.9
1122.74	26280.8
1120.06	26265.8
1117.37	26469.6
1114.68	26588.9
1112	26792.5
1109.31	26894.1
1106.62	26854.8
1103.93	27107.2
1101.24	26752.3
1098.55	27110.9
1095.85	26972.7
1093.16	27208.9
1090.47	27053.2
1087.77	27212.6
1085.07	27234.2
1082.38	27627.9
1079.68	27756.5
1076.98	27642.3
1074.28	27774.5
1071.58	28048.5
1068.88	28220.1
1066.18	28679.1
1063.47	29064.9
1060.77	29311.5
1058.06	29867.2
1055.36	30340.6
1052.65	30985.8
1049.95	31923.9
1047.24	33114.2
1044.53	34437
1041.82	36684.1
1039.11	39985.1
1036.39	45524.2
1033.68	53963.9
1030.97	63880.8
1028.25	68803.2
1025.54	62870
1022.82	53218.2
1020.1	45416.3
1017.39	40039.7
1014.67	36849.9
1011.95	34506.2
1009.23	32908
1006.5	31708.9
1003.78	31228.5
1001.06	30858.1
998.334	30253
995.609	29901.4
992.883	29433.2
990.156	29344.2
987.428	29178.5
984.699	29062.2
981.969	28942.4
979.238	28856.4
976.508	28907.1
973.775	28650.7
971.043	28734.3
968.309	28841.5
965.572	28878.5
962.838	28901.9
960.1	29010.7
957.363	28907.6
954.625	29055.4
951.885	28960.5
949.145	28989.2
946.402	29265
943.66	29177.3
940.918	29426.5
938.174	29353.4
935.43	29447.2
932.684	29286.1
929.938	29392.6
927.189	29540.7
924.441	29407.8
921.691	29726.1
918.941	29764.3
916.189	29745.5
913.438	29661.6
910.686	29850
907.932	29699.2
905.176	29843.1
902.42	29867.7
899.664	29983.5
896.906	29919.5
894.148	29717.4
891.389	29864.7
888.629	29990.3
885.867	30151.8
883.105	29912
880.344	29738.2
877.58	30129.4
874.814	29970
872.049	30141.1
869.283	30210.5
866.516	30293.2
863.746	30470.4
860.979	30263.5
858.207	30473.8
855.438	30689.3
852.664	30707.1
849.893	30777.9
847.119	30988.6
844.344	30840.2
841.568	30708.1
838.791	31114.1
836.014	30950.6
833.236	31243.4
830.457	31339.8
827.676	31376.9
824.895	31714
822.113	31849.5
819.33	32185.3
816.547	32822.3
813.762	33381.1
810.977	34674.3
808.189	38579.5
805.402	57567.1
802.613	89444.1
799.824	75951.9
797.035	50041.7
794.244	39993.5
791.451	36219.5
788.658	35254.6
785.865	34523.7
783.07	34151.6
780.273	33402.9
777.477	32676
774.68	32556.7
771.881	32199.8
769.082	31911.7
766.281	31692.3
763.48	31733.4
760.678	31612.8
757.875	31432.7
755.07	31270.5
752.266	31147.5
749.461	31138.1
746.654	31158.9
743.846	31099.8
741.037	31021.3
738.229	31034.1
735.418	30761.7
732.605	30813.5
729.793	30953.9
726.98	30962.3
724.166	30856.5
721.352	30845.5
718.535	30835.3
715.717	30886.1
712.9	30904.2
710.08	30969.1
707.262	31111.7
704.441	31233.8
701.619	31032
698.797	31117.1
695.973	31196.7
693.148	31018.9
690.322	31047.5
687.496	30933.3
684.67	30923.1
681.842	31129.5
679.012	31080.5
676.182	30707.7
673.352	30860.3
670.52	30807.9
667.688	30755.5
664.854	30696.2
662.018	30554.3
659.182	30575.8
656.346	30453.3
653.508	30587.2
650.67	30504.3
647.83	30623.1
644.99	30669.1
642.148	30674.7
639.307	30745.2
636.463	30576.5
633.619	30717
630.775	30738.4
627.928	30706.3
625.082	30595.6
622.234	30713.2
619.385	30625.2
616.535	30466.5
613.686	30670.5
610.834	30607.1
607.98	30498.3
605.127	30508.3
602.273	30323.7
599.418	30245.7
596.561	30104.9
593.703	30057.5
590.846	29962.2
587.986	30106.4
585.127	29766.5
582.266	29762.8
579.402	29839.1
576.541	29705.7
573.676	29657.6
570.811	29713.8
567.945	29593.7
565.078	29839.2
562.211	29607.1
559.342	29580.8
556.473	29686.4
553.602	29772.9
550.73	29517.6
547.857	29553.8
544.984	29478.1
542.111	29335
539.234	29246.5
536.359	29306.9
533.482	29218.5
530.604	29152.6
527.725	29177.5
524.844	29080.5
521.963	28929.1
519.082	28591.3
516.199	28680.2
513.314	28447.1
510.43	28284.1
507.545	28201.4
504.658	28215.3
501.77	28112
498.881	27979.4
495.992	28047.7
493.102	27997.1
490.209	28071.3
487.316	27997.5
484.424	27952
481.529	27997
478.633	27930.1
475.738	27703.3
472.84	27879.8
469.941	27752.9
467.043	27858.8
464.143	27593.7
461.242	27583.7
458.34	27636.3
455.436	27691.5
452.531	27350.5
449.627	27454.6
446.721	27350.4
443.814	27405.6
440.906	27555.8
437.998	27661.3
435.088	28372.7
432.178	29068.2
429.266	30538
426.354	31364.8
423.439	30045.2