File: Finalized Code/Tuned Standard Models/RAMAN Data MITACs/Bulk Carbon Ring Identification/Copy of PureCyclohexanenoBL.txt
#Wave		#Intensity
2964.05	11.03
2961.92	4445.1
2959.79	9178.85
2957.65	14770.4
2955.52	21473.6
2953.38	29392.7
2951.25	39318.8
2949.11	53401.9
2946.97	72423.5
2944.83	102404
2942.69	146628
2940.56	202497
2938.42	235347
2936.28	219499
2934.13	181955
2931.99	159954
2929.85	162058
2927.71	186743
2925.56	220833
2923.42	237214
2921.28	215476
2919.13	176987
2916.98	144369
2914.84	119637
2912.69	102392
2910.54	89904.5
2908.39	81751
2906.25	77015.6
2904.1	75885.5
2901.95	77472.8
2899.8	80371.8
2897.64	82751.8
2895.49	82068.7
2893.34	79208.8
2891.19	77795.8
2889.03	78883
2886.88	77605.9
2884.72	69493.5
2882.57	59825.3
2880.41	52761.8
2878.25	50960.5
2876.1	51825.2
2873.94	55429.4
2871.78	59029.1
2869.62	59961.8
2867.46	60074.3
2865.3	63105.9
2863.14	74411.8
2860.98	96516.6
2858.82	135249
2856.65	197342
2854.49	267766
2852.32	291991
2850.16	243790
2847.99	170555
2845.83	113557
2843.66	75192
2841.49	51292.7
2839.33	36014.7
2837.16	26545.7
2834.99	19991.2
2832.82	15713.3
2830.65	12695.6
2828.48	10259.6
2826.31	8436.75
2824.13	6458.54
2821.96	4855.85
2819.79	3596.3
2817.61	3073.57
2815.44	2400.95
2813.26	1982.69
2811.09	1494.7
2808.91	1143.02
2806.73	871.701
2804.56	1362.03
2802.38	2083.12
2800.2	3122.75
2798.02	2971.68
2795.84	2082.03
2793.66	948.985
2791.48	787.119
2789.29	463.856
2787.11	270.19
2784.93	130.85
2782.74	-3.221371
2780.56	-76.0682
2778.37	-107.055
2776.19	-156.572
2774	118.287
2771.81	84.2944
2769.63	37.6687
2767.44	44.5126
2765.25	-5.531540
2763.06	11.6371
2760.87	-73.3779
2758.68	-72.9223
2756.49	-48.3358
2754.3	-134.755
2752.1	-161.71
2749.91	-174.575
2747.72	-139.256
2745.52	38.4198
2743.33	39.669
2741.13	107.357
2738.93	165.55
2736.74	164.446
2734.54	170.999
2732.34	309.845
2730.14	488.077
2727.94	509.894
2725.74	585.966
2723.54	669.916
2721.34	727.87
2719.14	775.736
2716.94	1190.02
2714.73	1470.93
2712.53	1806.2
2710.32	2078.35
2708.12	2879.19
2705.91	3439.57
2703.71	4400.75
2701.5	6259.97
2699.29	9182.33
2697.08	9493.34
2694.88	7876.15
2692.67	6603.2
2690.46	6758.03
2688.24	6919.24
2686.03	6744.58
2683.82	5832.51
2681.61	5079.47
2679.39	4983.75
2677.18	5489.72
2674.97	6492.35
2672.75	7947.41
2670.54	9910.75
2668.32	12826.8
2666.1	17278.9
2663.88	18608.5
2661.67	14766.4
2659.45	10492.5
2657.23	7606.69
2655.01	5678.42
2652.79	4318.91
2650.56	3264.34
2648.34	2750.9
2646.12	2287.51
2643.9	2007.43
2641.67	1955.33
2639.45	1996.72
2637.22	3019.99
2635	6764.91
2632.77	8307.53
2630.54	4748.65
2628.31	2870.1
2626.08	2375.53
2623.86	2302.02
2621.63	2020.52
2619.4	2025.81
2617.17	2029.7
2614.93	2060.13
2612.7	2287.76
2610.47	2847.36
2608.23	3142.27
2606	3241.82
2603.77	3474.9
2601.53	3493.87
2599.29	3010.54
2597.06	2678.81
2594.82	2413.99
2592.58	1867.81
2590.34	1660.06
2588.1	1550.28
2585.86	1390.54
2583.62	1804.38
2581.38	1952.49
2579.14	1906.21
2576.9	1686.82
2574.65	1283.38
2572.41	990.124
2570.17	566.251
2567.92	221.483
2565.67	358.246
2563.43	290.023
2561.18	173.23
2558.93	17.889
2556.69	18.9761
2554.44	64.5256
2552.19	129.048
2549.94	11.1586
2547.69	-136.336
2545.43	131.188
2543.18	77.0257
2540.93	15.3977
2538.68	42.4059
2536.42	-33.0966
2534.17	333.402
2531.91	531.006
2529.66	639.342
2527.4	860.396
2525.14	569.749
2522.88	293.842
2520.62	-9.229203
2518.37	-74.9307
2516.11	-5.920893
2513.84	138.191
2511.58	118.397
2509.32	41.6099
2507.06	-0.778813
2504.8	-188.136
2502.53	-26.4662
2500.27	-117.564
2498	-149.006
2495.74	-126.353
2493.47	-15.5956
2491.2	-67.2342
2488.94	4.364715
2486.67	184.82
2484.4	142.6
2482.13	-117.696
2479.86	-100.161
2477.59	-117.516
2475.32	12.2003
2473.04	174.923
2470.77	186.543
2468.5	270.623
2466.22	318.692
2463.95	724.826
2461.67	916.411
2459.4	1435.12
2457.12	1406.86
2454.84	1414.85
2452.56	1119.11
2450.29	795.263
2448	607.159
2445.73	500.098
2443.44	432.491
2441.16	322.459
2438.88	243.124
2436.6	83.1944
2434.31	25.9366
2432.03	-45.4005
2429.75	35.9416
2427.46	66.0638
2425.17	-39.9296
2422.89	-29.3314
2420.6	-35.0414
2418.31	-190.92
2416.02	-123.674
2413.73	-49.9409
2411.44	-230.7
2409.15	-61.3594
2406.86	-151.863
2404.57	-280.378
2402.28	-352.392
2399.98	-57.4282
2397.69	-92.6846
2395.4	-235.398
2393.1	-384.648
2390.8	-66.4542
2388.51	-218.01
2386.21	-105.111
2383.91	-144.103
2381.61	45.3791
2379.31	138.244
2377.01	327.26
2374.71	396.989
2372.41	550.889
2370.11	568.271
2367.81	611.41
2365.5	443.529
2363.2	581.436
2360.9	399.249
2358.59	491.325
2356.29	847.68
2353.98	999.597
2351.67	1249.42
2349.36	1475.11
2347.05	1289.52
2344.74	1145.83
2342.44	820.904
2340.12	494.825
2337.81	358.265
2335.5	344.324
2333.19	241.816
2330.88	244.557
2328.56	257.783
2326.25	281.473
2323.93	390.898
2321.62	194.609
2319.3	155.06
2316.98	194.72
2314.66	385.536
2312.34	223.649
2310.03	26.1371
2307.71	150.373
2305.38	229.151
2303.06	171.308
2300.74	-35.8835
2298.42	117.977
2296.09	-194.8
2293.77	281.899
2291.45	91.7205
2289.12	113.346
2286.79	61.7965
2284.47	-127.076
2282.14	110.695
2279.81	50.6244
2277.48	91.7833
2275.15	116.556
2272.82	134.492
2270.49	157.429
2268.16	105.21
2265.83	114.586
2263.5	218.59
2261.16	181.301
2258.83	334.614
2256.49	394.674
2254.16	656.898
2251.82	459.264
2249.48	614.056
2247.15	593.688
2244.81	410.028
2242.47	582.772
2240.13	346.375
2237.79	465.112
2235.45	453.642
2233.11	452.468
2230.76	783.667
2228.42	885.827
2226.08	853.736
2223.73	855.286
2221.39	835.303
2219.04	498.672
2216.69	446.258
2214.35	710.736
2212	538.888
2209.65	605.371
2207.3	615.301
2204.95	329.311
2202.6	279.37
2200.25	211.166
2197.9	58.0282
2195.54	108.92
2193.19	97.0841
2190.84	45.8555
2188.48	22.9058
2186.12	-210.641
2183.77	-221.327
2181.41	115.286
2179.05	195.879
2176.7	15.3681
2174.34	72.231
2171.98	58.1444
2169.62	-95.3862
2167.26	-63.4607
2164.89	310.891
2162.53	294.831
2160.17	193.255
2157.8	307.504
2155.44	165.597
2153.07	99.4127
2150.71	20.4942
2148.34	3.517092
2145.97	80.0314
2143.61	-57.1132
2141.24	-2.975567
2138.87	-20.4315
2136.5	18.7585
2134.13	-45.1242
2131.76	-153.143
2129.38	-93.2659
2127.01	-8.299481
2124.64	39.8532
2122.26	24.9778
2119.89	11.128
2117.51	202.69
2115.13	99.6656
2112.76	-41.0075
2110.38	83.3008
2108	-64.6232
2105.62	26.1758
2103.24	-79.7259
2100.86	-179.282
2098.48	-59.1855
2096.1	-167.968
2093.71	-380.1
2091.33	198.759
2088.95	-264.858
2086.56	-159.122
2084.18	-128.516
2081.79	101.497
2079.4	-208.822
2077.02	-146.522
2074.63	5.517228
2072.24	-49.795
2069.85	-296.561
2067.46	-50.36
2065.06	-146.719
2062.67	106.992
2060.28	27.7317
2057.89	92.2805
2055.49	195.516
2053.1	124.27
2050.7	261.214
2048.31	-15.2495
2045.91	55.6589
2043.51	-66.3051
2041.11	-2.092107
2038.71	-59.0706
2036.31	-117.731
2033.91	-137.678
2031.51	-7.984944
2029.11	-194.186
2026.71	-63.8361
2024.3	-97.9191
2021.9	-151.309
2019.49	-144.255
2017.09	-129.528
2014.68	50.0994
2012.28	-4.816007
2009.87	-85.1254
2007.46	-59.4963
2005.05	-94.4163
2002.64	10.5966
2000.23	-178.372
1997.82	40.0634
1995.41	314.594
1992.99	13.5961
1990.58	320.909
1988.17	260.342
1985.75	244.634
1983.34	455.219
1980.92	276.641
1978.5	499.46
1976.08	485.799
1973.67	618.889
1971.25	504.392
1968.83	470.784
1966.4	580.717
1963.98	551.34
1961.56	545.133
1959.14	224.047
1956.71	466.727
1954.29	377.094
1951.87	598.184
1949.44	553.908
1947.01	311.205
1944.59	484.717
1942.16	408.525
1939.73	781.014
1937.3	417.015
1934.87	292.611
1932.44	367.623
1930.01	447.341
1927.57	569.639
1925.14	545.143
1922.71	538.72
1920.27	514.545
1917.84	369.388
1915.4	390.575
1912.96	601.465
1910.53	569.775
1908.09	532.648
1905.65	449.268
1903.21	601.361
1900.77	702.014
1898.33	502.396
1895.88	497.32
1893.44	542.894
1891	497.414
1888.55	696.129
1886.11	545.076
1883.66	372.413
1881.22	748.136
1878.77	747.845
1876.32	549.89
1873.88	634.432
1871.43	597.625
1868.97	625.557
1866.52	588.127
1864.07	573.753
1861.62	425.036
1859.17	544.054
1856.71	516.55
1854.26	397.429
1851.8	583.305
1849.35	346.979
1846.89	565.531
1844.43	541.452
1841.97	303.324
1839.52	501.424
1837.06	636.289
1834.6	339.623
1832.13	404.957
1829.67	424.384
1827.21	204.824
1824.75	177.069
1822.28	259.104
1819.82	217.471
1817.35	283.528
1814.88	267.394
1812.42	70.2257
1809.95	411.54
1807.48	103.711
1805.01	28.5833
1802.54	207.082
1800.07	49.4996
1797.6	120.267
1795.12	149.261
1792.65	147.588
1790.18	-46.7544
1787.7	50.3393
1785.23	150.944
1782.75	-71.7802
1780.27	-21.4005
1777.8	123.904
1775.32	256.58
1772.84	6.043528
1770.36	167.782
1767.88	99.0511
1765.4	185.347
1762.91	127.625
1760.43	204.774
1757.95	-33.4591
1755.46	-42.6291
1752.98	118.937
1750.49	54.485
1748	-37.5665
1745.52	99.056
1743.03	46.8541
1740.54	-154.976
1738.05	-29.3271
1735.56	-198.325
1733.06	-127.01
1730.57	16.513
1728.08	-166.343
1725.59	-143.083
1723.09	-73.6357
1720.6	-73.7856
1718.1	7.127578
1715.6	45.3591
1713.11	-16.8628
1710.61	194.254
1708.11	-117.594
1705.61	-106.339
1703.11	-119.798
1700.61	-13.5997
1698.1	66.8205
1695.6	339.337
1693.1	439.801
1690.59	133.729
1688.09	93.3199
1685.58	250.753
1683.07	119.136
1680.57	158.482
1678.06	72.7882
1675.55	96.3737
1673.04	-12.9578
1670.53	-157.88
1668.02	-49.8968
1665.5	-107.505
1662.99	-242.361
1660.48	-267.221
1657.96	-15.8512
1655.45	-193.299
1652.93	-149.046
1650.41	0.968359
1647.9	-86.5713
1645.38	-387.7
1642.86	-52.2651
1640.34	-59.0527
1637.82	31.8188
1635.29	-117.489
1632.77	-163.237
1630.25	-108.474
1627.73	38.7792
1625.2	90.0735
1622.68	-219.749
1620.15	57.8203
1617.62	202.898
1615.09	291.507
1612.57	81.387
1610.04	123.117
1607.51	128.119
1604.97	52.1144
1602.44	119.404
1599.91	306.264
1597.38	252.822
1594.84	302.2
1592.31	528.964
1589.77	408.573
1587.24	504.764
1584.7	648.589
1582.16	510.308
1579.62	551.15
1577.08	558.168
1574.54	538.26
1572	661.908
1569.46	791.851
1566.91	650.942
1564.37	796.416
1561.83	584.095
1559.28	488.757
1556.73	643.3
1554.19	655.419
1551.64	723.642
1549.09	751.19
1546.54	695.099
1543.99	768.318
1541.44	879.921
1538.89	1107.93
1536.34	926.42
1533.79	1073.04
1531.23	996.631
1528.68	955.673
1526.12	947.195
1523.56	1165.97
1521.01	917.526
1518.45	1167.89
1515.89	1131.31
1513.33	1279.84
1510.77	1335.18
1508.21	1314.9
1505.65	1652.53
1503.08	1649.16
1500.52	1704.29
1497.96	2022.73
1495.39	2238.3
1492.82	2355.93
1490.26	2854.92
1487.69	3332.46
1485.12	3712.93
1482.55	3647.55
1479.98	3775.18
1477.41	4127.6
1474.84	4557.42
1472.27	5170.07
1469.69	6178.26
1467.12	7868.88
1464.54	8770.48
1461.97	9002.69
1459.39	10493.1
1456.81	13035.9
1454.24	16517.8
1451.66	22100.5
1449.08	29258.9
1446.5	37918.1
1443.92	41970
1441.33	36719.9
1438.75	27489.2
1436.17	20507.8
1433.58	15970.2
1431	13726.7
1428.41	12148
1425.82	10865
1423.23	9252.9
1420.65	7298.57
1418.06	6109.04
1415.47	5102.06
1412.88	4154.45
1410.28	3546.68
1407.69	3420.52
1405.1	2953.78
1402.5	2821.44
1399.91	2499.35
1397.31	2411.63
1394.71	2193.69
1392.12	2343.15
1389.52	2147.72
1386.92	2088.56
1384.32	2200.04
1381.72	2169.95
1379.11	1984.97
1376.51	1976.34
1373.91	2003.25
1371.3	2434.73
1368.7	2322.3
1366.09	2469.06
1363.48	2967.41
1360.88	3080.84
1358.27	3913.2
1355.66	4948.49
1353.05	6372.53
1350.44	7443.08
1347.83	8083.17
1345.21	7573.76
1342.6	6637.12
1339.99	5081.26
1337.37	4097
1334.76	3565.78
1332.14	2967.59
1329.52	2556.53
1326.9	2502.6
1324.28	2199.01
1321.66	2100.23
1319.04	2096.85
1316.42	2280.92
1313.8	1943.96
1311.17	1994.82
1308.55	2000.45
1305.92	2142.1
1303.3	2484.13
1300.67	2840.54
1298.04	3063.48
1295.42	3264.02
1292.79	3956.29
1290.16	4872.97
1287.53	5411.89
1284.89	6699.25
1282.26	8111.12
1279.63	10604.2
1276.99	13922.3
1274.36	19001.9
1271.72	26858.7
1269.08	36318.2
1266.45	40503.8
1263.81	34959.9
1261.17	24895.6
1258.53	16858.5
1255.89	12049.4
1253.24	8973.46
1250.6	6790.45
1247.96	5306.43
1245.31	4249.6
1242.67	3324.96
1240.02	2687.6
1237.38	2421.03
1234.73	2070.67
1232.08	1670.49
1229.43	1595.47
1226.78	1359.67
1224.13	990.486
1221.47	777.179
1218.82	669.912
1216.17	746.432
1213.51	598.608
1210.86	477.916
1208.2	524.988
1205.54	499.748
1202.88	303.03
1200.23	318.016
1197.57	168.14
1194.91	53.8915
1192.24	109.917
1189.58	23.7442
1186.92	-121.313
1184.25	58.9921
1181.59	-98.0806
1178.92	-260.66
1176.26	4.522590
1173.59	264.049
1170.92	321.841
1168.25	669.841
1165.58	951.464
1162.91	2501.75
1160.24	5835.8
1157.57	7560.78
1154.89	4474.43
1152.22	2362.17
1149.54	1472.61
1146.87	1026.6
1144.19	495.54
1141.51	463.37
1138.83	145.093
1136.15	-65.8918
1133.47	134.076
1130.79	-26.1935
1128.11	22.7648
1125.43	-245.478
1122.74	-21.58
1120.06	-95.2947
1117.37	50.1267
1114.68	111.365
1112	257.183
1109.31	301.333
1106.62	204.99
1103.93	400.611
1101.24	-10.6191
1098.55	291.959
1095.85	98.0664
1093.16	279.05
1090.47	68.4443
1087.77	173.329
1085.07	140.875
1082.38	480.886
1079.68	556.175
1076.98	389.115
1074.28	468.82
1071.58	690.83
1068.88	810.785
1066.18	1218.56
1063.47	1553.67
1060.77	1749.9
1058.06	2255.72
1055.36	2679.73
1052.65	3275.89
1049.95	4165.45
1047.24	5307.65
1044.53	6582.8
1041.82	8782.71
1039.11	12036.9
1036.39	17529.8
1033.68	25923.6
1030.97	35795.1
1028.25	40672.6
1025.54	34695
1022.82	24999.1
1020.1	17153.6
1017.39	11734
1014.67	8501.49
1011.95	6115.6
1009.23	4475.71
1006.5	3235.26
1003.78	2714
1001.06	2303.22
998.334	1658.21
995.609	1267.13
992.883	759.793
990.156	632.135
987.428	428.272
984.699	274.231
981.969	117.022
979.238	-5.937669
976.508	8.325984
973.775	-284.16
971.043	-236.252
968.309	-164.333
965.572	-162.203
962.838	-173.319
960.1	-98.5775
957.363	-235.409
954.625	-120.859
951.885	-248.732
949.145	-252.589
946.402	-9.045871
943.66	-128.533
940.918	89.1748
938.174	-15.093
935.43	47.9556
932.684	-143.56
929.938	-67.1965
927.189	51.1017
924.441	-111.222
921.691	177.87
918.941	187.309
916.189	139.993
913.438	27.8528
910.686	188.318
907.932	9.861921
905.176	126.446
902.42	123.946
899.664	212.94
896.906	122.416
894.148	-105.912
891.389	15.3727
888.629	115.17
885.867	251.194
883.105	-13.8195
880.344	-212.639
877.58	153.773
874.814	-30.1482
872.049	116.702
869.283	161.964
866.516	220.889
863.746	374.414
860.979	144.115
858.207	331.221
855.438	523.815
852.664	518.831
849.893	567.049
847.119	755.464
844.344	584.976
841.568	430.95
838.791	815.301
836.014	630.308
833.236	901.822
830.457	977.137
827.676	993.484
824.895	1309.97
822.113	1425.07
819.33	1740.73
816.547	2357.83
813.762	2896.94
810.977	4170.7
808.189	8056.67
805.402	27025.3
802.613	58883.6
799.824	45373
797.035	19444.7
794.244	9378.56
791.451	5587.01
788.658	4604.77
785.865	3856.98
783.07	3468.13
780.273	2703.1
777.477	1960.28
774.68	1825.31
771.881	1453.2
769.082	1150.2
766.281	916.239
763.48	943.274
760.678	808.971
757.875	615.669
755.07	440.691
752.266	305.352
749.461	284.172
746.654	293.661
743.846	223.836
741.037	135.091
738.229	138.246
735.418	-143.311
732.605	-99.9326
729.793	32.574
726.98	33.7575
724.166	-78.5387
721.352	-95.4296
718.535	-110.72
715.717	-64.2769
712.9	-49.7947
710.08	12.2726
707.262	152.819
704.441	273.802
701.619	71.6997
698.797	157.325
695.973	238.513
693.148	63.1627
690.322	95.1204
687.496	-14.6759
684.67	-19.4549
681.842	193.403
679.012	151.956
676.182	-212.15
673.352	-49.7931
670.52	-91.2554
667.688	-131.513
664.854	-177.564
662.018	-304.916
659.182	-267.603
656.346	-373.001
653.508	-220.777
650.67	-284.01
647.83	-144.142
644.99	-75.7642
642.148	-46.3421
639.307	49.2963
636.463	-92.7768
633.619	75.7353
630.775	126.563
627.928	125.498
625.082	47.178
622.234	198.627
619.385	146.1
616.535	24.34
613.686	266.665
610.834	243.179
607.98	175.858
605.127	228.77
602.273	88.626
599.418	56.4938
596.561	-36.8631
593.703	-35.4395
590.846	-80.4737
587.986	115.482
585.127	-171.334
582.266	-120.604
579.402	11.5187
576.541	-64.7793
573.676	-54.479
570.811	61.3347
567.945	1.859807
565.078	309.246
562.211	139.915
559.342	177.433
556.473	347.724
553.602	499.684
550.73	310.62
547.857	413.63
544.984	405.32
542.111	329.872
539.234	309.433
536.359	438.046
533.482	417.818
530.604	420.048
527.725	512.839
524.844	483.304
521.963	398.76
519.082	126.887
516.199	280.955
513.314	111.751
510.43	11.1988
507.545	-10.6427
504.658	62.3372
501.77	15.945
498.881	-62.0863
495.992	58.0741
493.102	56.3789
490.209	176.339
487.316	144.585
484.424	137.343
481.529	216.198
478.633	178.585
475.738	-23.9575
472.84	171.299
469.941	57.2822
467.043	169.779
464.143	-95.4765
461.242	-112.912
458.34	-75.4842
455.436	-43.8322
452.531	-417.203
449.627	-354.9
446.721	-510.927
443.814	-518.192
440.906	-441.762
437.998	-421.889
435.088	191.068
432.178	774.787
429.266	2118.63
426.354	2804.57
423.439	1328.26