File: Finalized Code/Tuned Standard Models/RAMAN Data MITACs/Bulk Carbon Ring Identification/Copy of PureSoybeanOilnoBL.txt
#Wave		#Intensity
2964.05	3.714189
2961.92	8329.76
2959.79	14556
2957.65	19486.5
2955.52	23093
2953.38	26698.9
2951.25	30127.9
2949.11	37021.9
2946.97	45432.4
2944.83	59134.4
2942.69	74223.2
2940.56	89805.9
2938.42	104176
2936.28	114282
2934.13	121405
2931.99	126310
2929.85	129621
2927.71	132245
2925.56	134714
2923.42	137030
2921.28	139944
2919.13	142885
2916.98	146195
2914.84	150334
2912.69	154370
2910.54	159023
2908.39	164368
2906.25	168564
2904.1	172562
2901.95	176670
2899.8	179231
2897.64	181928
2895.49	183034
2893.34	183885
2891.19	183166
2889.03	178274
2886.88	171968
2884.72	163165
2882.57	153505
2880.41	145702
2878.25	141874
2876.1	139044
2873.94	137186
2871.78	134043
2869.62	130291
2867.46	127727
2865.3	128787
2863.14	135208
2860.98	142671
2858.82	150835
2856.65	160516
2854.49	169055
2852.32	173164
2850.16	168325
2847.99	148071
2845.83	118569
2843.66	88783.5
2841.49	65965.1
2839.33	49709.2
2837.16	39202.3
2834.99	30967.2
2832.82	25123.1
2830.65	20523.1
2828.48	15861.6
2826.31	12612.4
2824.13	10138.3
2821.96	7947.48
2819.79	6748.16
2817.61	4989.97
2815.44	3924.29
2813.26	2945.29
2811.09	2442.14
2808.91	1727.19
2806.73	1325.09
2804.56	1206.94
2802.38	1236.95
2800.2	1151.15
2798.02	849.553
2795.84	1226.71
2793.66	1455.97
2791.48	859.31
2789.29	554.09
2787.11	772.765
2784.93	395.346
2782.74	314.039
2780.56	11.4784
2778.37	-3.709569
2776.19	-150.865
2774	13.4637
2771.81	-258.781
2769.63	-15.5941
2767.44	168.276
2765.25	89.3619
2763.06	89.3443
2760.87	68.2998
2758.68	811.721
2756.49	937.538
2754.3	1489.24
2752.1	1849.92
2749.91	2216.4
2747.72	2697.79
2745.52	3267.98
2743.33	4189.15
2741.13	5089.16
2738.93	5981.82
2736.74	6951.16
2734.54	8159.27
2732.34	8388.38
2730.14	9400.3
2727.94	9393.52
2725.74	9827.71
2723.54	9812.22
2721.34	9796.64
2719.14	9420.37
2716.94	9425.41
2714.73	8320.84
2712.53	8145.97
2710.32	7411.38
2708.12	6814.4
2705.91	6803.16
2703.71	5749.89
2701.5	5479.91
2699.29	5044.09
2697.08	4899.3
2694.88	4933.82
2692.67	4906.4
2690.46	4901.65
2688.24	5169.69
2686.03	4854.61
2683.82	5059.04
2681.61	4862.01
2679.39	5210.14
2677.18	5082.9
2674.97	5009.22
2672.75	4819.38
2670.54	4585.48
2668.32	4612.05
2666.1	4676.54
2663.88	4542.1
2661.67	4426.69
2659.45	4256.27
2657.23	3998.44
2655.01	3944.87
2652.79	3610.02
2650.56	3759.66
2648.34	3988.95
2646.12	3540.57
2643.9	3447.71
2641.67	3463.77
2639.45	3161.16
2637.22	3364.84
2635	3073.25
2632.77	3062.96
2630.54	3188.38
2628.31	3019.18
2626.08	2757.84
2623.86	2471.51
2621.63	2518.69
2619.4	2654.65
2617.17	2881.57
2614.93	2717.36
2612.7	2280.66
2610.47	2297.64
2608.23	2447.98
2606	2581.14
2603.77	2516.66
2601.53	2587.77
2599.29	2478.14
2597.06	2207.96
2594.82	2092.34
2592.58	2155.63
2590.34	2002.86
2588.1	1831.02
2585.86	1617.93
2583.62	1222.49
2581.38	1384.78
2579.14	1586.77
2576.9	1395.39
2574.65	1085.18
2572.41	1216.66
2570.17	1138.21
2567.92	1029.73
2565.67	978.828
2563.43	1221.55
2561.18	1215.79
2558.93	957.342
2556.69	984.653
2554.44	965.343
2552.19	706.86
2549.94	1109.03
2547.69	920.149
2545.43	858.455
2543.18	922.77
2540.93	940.519
2538.68	664.271
2536.42	590.247
2534.17	625.52
2531.91	498.412
2529.66	480.561
2527.4	760.567
2525.14	465.638
2522.88	295.42
2520.62	395.334
2518.37	125.913
2516.11	187.115
2513.84	232.798
2511.58	385.19
2509.32	-163.816
2507.06	123.844
2504.8	88.9018
2502.53	-65.985
2500.27	-225.248
2498	142.059
2495.74	149.726
2493.47	-254.677
2491.2	-297.565
2488.94	88.8121
2486.67	-156.294
2484.4	43.1223
2482.13	-84.5952
2479.86	84.9106
2477.59	-75.8058
2475.32	56.1698
2473.04	206.597
2470.77	306.472
2468.5	11.9265
2466.22	550.662
2463.95	61.2023
2461.67	368.54
2459.4	-229.069
2457.12	234.378
2454.84	259.046
2452.56	470.501
2450.29	513.455
2448	444.875
2445.73	304.141
2443.44	475.632
2441.16	100.113
2438.88	431.736
2436.6	483.821
2434.31	398.361
2432.03	602.825
2429.75	320.984
2427.46	502.251
2425.17	170.264
2422.89	362.129
2420.6	515.657
2418.31	161.851
2416.02	753.568
2413.73	458.389
2411.44	277.435
2409.15	301.914
2406.86	138.252
2404.57	125.577
2402.28	24.821
2399.98	200.862
2397.69	419.026
2395.4	111.712
2393.1	-28.4493
2390.8	275.97
2388.51	174.618
2386.21	217.353
2383.91	72.4927
2381.61	-121.15
2379.31	56.6385
2377.01	143.279
2374.71	102.013
2372.41	164.554
2370.11	119.83
2367.81	1.496457
2365.5	-231.47
2363.2	-153.178
2360.9	-119.333
2358.59	-95.3434
2356.29	-50.9548
2353.98	-218.287
2351.67	-86.7007
2349.36	-87.9886
2347.05	-22.5157
2344.74	74.0981
2342.44	25.008
2340.12	-48.9259
2337.81	-145.53
2335.5	36.7459
2333.19	18.5704
2330.88	-162.207
2328.56	-291.329
2326.25	-154.755
2323.93	38.6425
2321.62	-77.7796
2319.3	-29.7756
2316.98	106.241
2314.66	-12.5009
2312.34	121.136
2310.03	-130.804
2307.71	84.2078
2305.38	104.821
2303.06	-41.9632
2300.74	35.3827
2298.42	128.706
2296.09	78.3185
2293.77	-62.1073
2291.45	225.948
2289.12	261.072
2286.79	208.361
2284.47	-59.444
2282.14	142.497
2279.81	-9.709146
2277.48	-125.504
2275.15	-71.3208
2272.82	331.183
2270.49	96.7219
2268.16	246.852
2265.83	-17.3737
2263.5	23.7898
2261.16	83.0698
2258.83	324.71
2256.49	178.044
2254.16	134.869
2251.82	-2.071660
2249.48	-368.007
2247.15	-65.8608
2244.81	-33.2754
2242.47	279.258
2240.13	72.296
2237.79	-31.3277
2235.45	-334.815
2233.11	112.577
2230.76	293.989
2228.42	145.914
2226.08	67.0088
2223.73	120.955
2221.39	190.819
2219.04	8.078391
2216.69	-484.337
2214.35	-293.265
2212	-85.2858
2209.65	356.924
2207.3	-90.2821
2204.95	119.756
2202.6	220.645
2200.25	230.476
2197.9	234.013
2195.54	450.355
2193.19	274.128
2190.84	335.002
2188.48	701.518
2186.12	300.468
2183.77	584.516
2181.41	596.994
2179.05	297.99
2176.7	406.823
2174.34	305.635
2171.98	126.522
2169.62	359.022
2167.26	8.318400
2164.89	165.029
2162.53	117.303
2160.17	145.573
2157.8	181.315
2155.44	166.619
2153.07	44.6676
2150.71	-11.8456
2148.34	318.983
2145.97	112.273
2143.61	238.093
2141.24	409.167
2138.87	387.954
2136.5	150.47
2134.13	378.531
2131.76	243.313
2129.38	271.014
2127.01	422.655
2124.64	51.9385
2122.26	180.77
2119.89	279.268
2117.51	418.718
2115.13	499.571
2112.76	294.562
2110.38	304.503
2108	626.536
2105.62	444.1
2103.24	351.896
2100.86	502.559
2098.48	523.648
2096.1	367.156
2093.71	556.81
2091.33	442.522
2088.95	404.673
2086.56	609.239
2084.18	640.59
2081.79	558.341
2079.4	280.189
2077.02	712.507
2074.63	240.894
2072.24	336.681
2069.85	276.268
2067.46	259.81
2065.06	372.647
2062.67	398.116
2060.28	381.075
2057.89	334.048
2055.49	676.171
2053.1	44.0255
2050.7	344.76
2048.31	121.784
2045.91	159.847
2043.51	401.558
2041.11	30.7794
2038.71	137.805
2036.31	115.205
2033.91	179.915
2031.51	170.095
2029.11	-15.7967
2026.71	191.333
2024.3	32.7753
2021.9	226.614
2019.49	1.167380
2017.09	-390.67
2014.68	-8.098921
2012.28	-65.2413
2009.87	-235.968
2007.46	-130.416
2005.05	-340.022
2002.64	-38.9284
2000.23	-71.5138
1997.82	13.7971
1995.41	146.672
1992.99	-274.586
1990.58	-258.003
1988.17	80.4876
1985.75	-47.1173
1983.34	43.9753
1980.92	-37.9333
1978.5	-301
1976.08	60.3131
1973.67	145.617
1971.25	-310.364
1968.83	-283.393
1966.4	-113.331
1963.98	-225.031
1961.56	-26.0618
1959.14	-240.249
1956.71	-228.158
1954.29	-175.918
1951.87	105.386
1949.44	-3.427385
1947.01	137.273
1944.59	89.2541
1942.16	-12.9893
1939.73	281.697
1937.3	14.6551
1934.87	228.394
1932.44	100.005
1930.01	283.07
1927.57	-129.673
1925.14	349.287
1922.71	465.877
1920.27	63.9681
1917.84	313.665
1915.4	358.861
1912.96	287.612
1910.53	106.175
1908.09	149.608
1905.65	379.898
1903.21	189.635
1900.77	272.978
1898.33	188.062
1895.88	90.0208
1893.44	580.239
1891	79.7234
1888.55	522.944
1886.11	304.978
1883.66	328.485
1881.22	237.014
1878.77	82.579
1876.32	4.593652
1873.88	10.0554
1871.43	388.666
1868.97	109.575
1866.52	164.94
1864.07	-150.414
1861.62	3.551179
1859.17	55.9683
1856.71	8.964581
1854.26	-115.111
1851.8	-14.9125
1849.35	133.886
1846.89	97.1641
1844.43	74.6704
1841.97	-29.8166
1839.52	-61.3124
1837.06	-77.596
1834.6	-80.6745
1832.13	142.874
1829.67	-64.5156
1827.21	103.324
1824.75	-208.021
1822.28	-121.036
1819.82	300.257
1817.35	-80.5073
1814.88	91.1923
1812.42	-215.578
1809.95	323.328
1807.48	596.638
1805.01	171.062
1802.54	321.272
1800.07	111.669
1797.6	452.241
1795.12	115.847
1792.65	164.233
1790.18	394.771
1787.7	577.869
1785.23	553.667
1782.75	433.92
1780.27	466.074
1777.8	461.99
1775.32	743.228
1772.84	706.95
1770.36	893.562
1767.88	1146.29
1765.4	1332.62
1762.91	1666.3
1760.43	2527.24
1757.95	3284.38
1755.46	4423.86
1752.98	5718.92
1750.49	6372.2
1748	7077.12
1745.52	6868.78
1743.03	6490.44
1740.54	5893.28
1738.05	5087.46
1735.56	3846.24
1733.06	3388.32
1730.57	2400.14
1728.08	1950.89
1725.59	1423.05
1723.09	1289.78
1720.6	933.091
1718.1	1042.45
1715.6	964.254
1713.11	999.761
1710.61	1357.14
1708.11	944.154
1705.61	1442.76
1703.11	1068.81
1700.61	981.768
1698.1	1448.04
1695.6	1172.9
1693.1	1117.72
1690.59	1041.72
1688.09	1165.51
1685.58	1446.21
1683.07	1840.95
1680.57	2139.15
1678.06	2643.62
1675.55	3932.76
1673.04	5081.21
1670.53	7212.77
1668.02	11151.4
1665.5	17146.1
1662.99	25586.5
1660.48	34951.7
1657.96	38424.3
1655.45	37164.2
1652.93	31164.7
1650.41	24548.6
1647.9	18326.3
1645.38	13371.4
1642.86	9704.4
1640.34	7047.54
1637.82	5665.58
1635.29	4632.06
1632.77	3519.24
1630.25	3032.81
1627.73	2348.41
1625.2	2315.39
1622.68	1909.73
1620.15	1532.95
1617.62	1285.49
1615.09	981.115
1612.57	807.908
1610.04	872.099
1607.51	708.987
1604.97	666.029
1602.44	432.336
1599.91	15.001
1597.38	134.611
1594.84	186.389
1592.31	58.4483
1589.77	109.373
1587.24	81.7548
1584.7	-50.7513
1582.16	-54.6358
1579.62	51.4023
1577.08	-301.41
1574.54	172.313
1572	28.5219
1569.46	48.4767
1566.91	-168.482
1564.37	-156.185
1561.83	-65.5191
1559.28	165.055
1556.73	-111.999
1554.19	-97.4618
1551.64	-29.1051
1549.09	-53.5155
1546.54	-11.4155
1543.99	-102.036
1541.44	169.627
1538.89	-334.594
1536.34	-27.721
1533.79	237.112
1531.23	157.737
1528.68	262.7
1526.12	52.9829
1523.56	221.434
1521.01	237.02
1518.45	512.565
1515.89	257.72
1513.33	490.526
1510.77	737.869
1508.21	514.621
1505.65	928.224
1503.08	956.926
1500.52	759.431
1497.96	1128.24
1495.39	1684.26
1492.82	2061.53
1490.26	2306.73
1487.69	2784.67
1485.12	3193.58
1482.55	3705.08
1479.98	5156.17
1477.41	6289.78
1474.84	8175.08
1472.27	10318.8
1469.69	13014.7
1467.12	16142.4
1464.54	19818.5
1461.97	23429.6
1459.39	27363.3
1456.81	29807.8
1454.24	32141.8
1451.66	34446.4
1449.08	36438.9
1446.5	39491.7
1443.92	43287.3
1441.33	46552.2
1438.75	46866.5
1436.17	43071.5
1433.58	35059.6
1431	25796.1
1428.41	18206
1425.82	13549.7
1423.23	11032.3
1420.65	9208.31
1418.06	8042.32
1415.47	6813.76
1412.88	5107.59
1410.28	3914.65
1407.69	3548.5
1405.1	3639.7
1402.5	3924.84
1399.91	3974.9
1397.31	3463.02
1394.71	2551.82
1392.12	2087.98
1389.52	1713.68
1386.92	1415.47
1384.32	1660.56
1381.72	1797.43
1379.11	1677.93
1376.51	2172.8
1373.91	2492.51
1371.3	2721.35
1368.7	2780.05
1366.09	2820.69
1363.48	2964.62
1360.88	2471.7
1358.27	2551.96
1355.66	2492.05
1353.05	2736.66
1350.44	2889.65
1347.83	3163.82
1345.21	2795.55
1342.6	3167
1339.99	3434.56
1337.37	3299.32
1334.76	3899.1
1332.14	4830.75
1329.52	6035.88
1326.9	7476.22
1324.28	8842.57
1321.66	10703.3
1319.04	11477.1
1316.42	12644.7
1313.8	14309.2
1311.17	17112.6
1308.55	20032
1305.92	23333.8
1303.3	26071.3
1300.67	25718.9
1298.04	23801.5
1295.42	20533.5
1292.79	17679.8
1290.16	15798.3
1287.53	14521
1284.89	14752.7
1282.26	15461.1
1279.63	16937.8
1276.99	18305.9
1274.36	20370.5
1271.72	22119.4
1269.08	23949.5
1266.45	24312.5
1263.81	24060
1261.17	23459.8
1258.53	21519.9
1255.89	19553
1253.24	17163.5
1250.6	14649.2
1247.96	11989.8
1245.31	10145.7
1242.67	8186.11
1240.02	6832.94
1237.38	5713.99
1234.73	4975.77
1232.08	4444.91
1229.43	3738.77
1226.78	3283.99
1224.13	2980.78
1221.47	2658.15
1218.82	2681.18
1216.17	2609.54
1213.51	1941.48
1210.86	1934.05
1208.2	1432.71
1205.54	1276.61
1202.88	1267.76
1200.23	1253.35
1197.57	1096.75
1194.91	1018.93
1192.24	967.449
1189.58	645.77
1186.92	788.123
1184.25	714.541
1181.59	471.944
1178.92	378.108
1176.26	158.368
1173.59	112.409
1170.92	47.0058
1168.25	-141.47
1165.58	163.571
1162.91	51.7989
1160.24	8.179540
1157.57	-108.022
1154.89	-163.529
1152.22	-109.053
1149.54	-100.198
1146.87	102.299
1144.19	209.811
1141.51	3.056801
1138.83	-42.6717
1136.15	56.6459
1133.47	528.451
1130.79	1005.61
1128.11	1528
1125.43	1979.61
1122.74	2438.41
1120.06	2839.5
1117.37	3035.48
1114.68	3321.33
1112	4286.21
1109.31	4500.26
1106.62	4706.86
1103.93	4972.63
1101.24	5681.56
1098.55	5909.07
1095.85	6820.83
1093.16	8142.52
1090.47	9106.69
1087.77	10225.5
1085.07	10862.6
1082.38	11523.3
1079.68	12191.1
1076.98	11953.4
1074.28	11938.2
1071.58	11512
1068.88	10778.2
1066.18	10938.7
1063.47	10464.6
1060.77	8966.04
1058.06	7185
1055.36	5701.51
1052.65	4629.41
1049.95	4394.06
1047.24	4019.25
1044.53	3707.28
1041.82	3512.33
1039.11	3591.31
1036.39	3316.84
1033.68	3067.49
1030.97	3205.65
1028.25	3312.61
1025.54	3009.8
1022.82	3098.73
1020.1	2931.13
1017.39	2757.36
1014.67	2514.3
1011.95	2439.02
1009.23	2009.79
1006.5	1897.55
1003.78	2160.51
1001.06	1971.78
998.334	1774.21
995.609	1717.63
992.883	1765.4
990.156	2079.01
987.428	2342.4
984.699	3100.35
981.969	4318.67
979.238	5852.8
976.508	7298.58
973.775	8411.91
971.043	8406.87
968.309	7700.8
965.572	6428.21
962.838	5259.45
960.1	4501.13
957.363	3664.33
954.625	3355.65
951.885	3283.75
949.145	3026.72
946.402	2598.42
943.66	2577.41
940.918	2735.44
938.174	2543.34
935.43	2430.5
932.684	2371.5
929.938	2411.56
927.189	2486.29
924.441	2449.75
921.691	2495.92
918.941	3100.89
916.189	3339.18
913.438	2999.38
910.686	3035.39
907.932	3222.65
905.176	2988.83
902.42	2646.97
899.664	3015.56
896.906	2795.42
894.148	3017.98
891.389	3166.68
888.629	3323.62
885.867	3576.34
883.105	3248.52
880.344	3525.89
877.58	3552.88
874.814	3894.45
872.049	3822.77
869.283	3785.56
866.516	3625.37
863.746	3684.12
860.979	3166.64
858.207	3021.94
855.438	2899.97
852.664	3221.24
849.893	3523.6
847.119	3669.81
844.344	3476.05
841.568	3398.34
838.791	3512.84
836.014	3048.3
833.236	2828.02
830.457	2109.96
827.676	1703.38
824.895	1472.72
822.113	1155.54
819.33	894.249
816.547	729.873
813.762	315.419
810.977	354.56
808.189	51.6003
805.402	-5.395754
802.613	64.6006
799.824	-45.6822
797.035	-105.834
794.244	185.665
791.451	-42.8512
788.658	-77.7015
785.865	-100.013
783.07	-50.068
780.273	39.9839
777.477	-55.2117
774.68	243.053
771.881	-75.4657
769.082	138.988
766.281	-64.6233
763.48	316.727
760.678	221.503
757.875	292.362
755.07	83.3814
752.266	261.461
749.461	83.4194
746.654	120.068
743.846	405.765
741.037	498.696
738.229	547.04
735.418	775.902
732.605	1129.29
729.793	1429.94
726.98	1274.28
724.166	1246.75
721.352	1239.26
718.535	865.401
715.717	670.016
712.9	711.144
710.08	647.684
707.262	579.379
704.441	362.404
701.619	149.551
698.797	193.056
695.973	109.063
693.148	58.0866
690.322	63.9041
687.496	45.3474
684.67	127.479
681.842	54.0076
679.012	24.8578
676.182	-296.176
673.352	-109.309
670.52	-147.463
667.688	-39.5431
664.854	-158.245
662.018	-188.024
659.182	-95.6529
656.346	-271.906
653.508	-158.398
650.67	-74.781
647.83	-85.0359
644.99	0.240116
642.148	20.5856
639.307	-14.3481
636.463	19.8698
633.619	39.948
630.775	94.0234
627.928	63.1096
625.082	166.727
622.234	381.173
619.385	233.457
616.535	464.859
613.686	576.235
610.834	839.277
607.98	661.126
605.127	779.55
602.273	1016.29
599.418	878.548
596.561	969.066
593.703	803.068
590.846	859.956
587.986	623.092
585.127	451.442
582.266	466.806
579.402	488.042
576.541	528.175
573.676	523.77
570.811	387.948
567.945	331.992
565.078	335.88
562.211	379.598
559.342	282.596
556.473	5.124877
553.602	231.809
550.73	11.7874
547.857	-60.647
544.984	76.791
542.111	158.863
539.234	118.138
536.359	336.565
533.482	297.301
530.604	163.313
527.725	279.845
524.844	206.664
521.963	216.292
519.082	49.5348
516.199	276.717
513.314	161.048
510.43	35.2837
507.545	242.964
504.658	43.8004
501.77	30.7126
498.881	-53.2243
495.992	12.8002
493.102	42.7252
490.209	3.165838
487.316	-47.9725
484.424	-106.197
481.529	79.0346
478.633	-66.8006
475.738	-25.6434
472.84	-124.013
469.941	-76.333
467.043	-72.3243
464.143	11.9563
461.242	42.7763
458.34	-112.514
455.436	-72.6118
452.531	-158.126
449.627	-14.6237
446.721	-13.8608
443.814	-170.816
440.906	-46.5183
437.998	-20.9968
435.088	91.1085
432.178	98.4344
429.266	97.3266
426.354	315.562
423.439	180.844