File: Finalized Code/Tuned Standard Models/RAMAN Data MITACs/TULSI/PMMA on Si substrate/Si-hydrophobic-with PMMA-2.txt
#Wave		#Intensity
1800.53	107290
1799.56	107747
1798.59	107828
1797.62	107406
1796.65	107723
1795.68	106875
1794.71	107644
1793.74	107866
1792.77	107011
1791.8	107277
1790.83	107238
1789.86	107972
1788.89	107915
1787.92	107332
1786.94	107787
1785.97	107773
1785	107775
1784.03	107633
1783.05	107706
1782.08	107815
1781.11	107768
1780.13	108161
1779.16	108004
1778.19	108263
1777.21	108761
1776.24	108673
1775.27	108697
1774.29	108458
1773.32	108135
1772.34	108601
1771.37	108960
1770.39	109226
1769.42	108679
1768.44	108389
1767.46	109020
1766.49	108657
1765.51	108862
1764.54	108460
1763.56	108856
1762.58	108728
1761.61	108522
1760.63	109054
1759.65	109294
1758.67	109150
1757.7	109184
1756.72	108801
1755.74	109591
1754.76	109174
1753.78	109868
1752.8	109472
1751.83	109404
1750.85	109735
1749.87	109434
1748.89	109450
1747.91	110211
1746.93	110026
1745.95	109445
1744.97	110149
1743.99	110115
1743.01	109834
1742.03	109438
1741.04	109866
1740.06	109833
1739.08	110189
1738.1	110520
1737.12	110186
1736.14	110607
1735.15	110240
1734.17	110636
1733.19	110690
1732.21	110179
1731.22	111373
1730.24	110879
1729.26	110938
1728.27	112060
1727.29	111220
1726.3	111114
1725.32	110985
1724.34	111747
1723.35	111930
1722.37	112041
1721.38	111379
1720.4	111948
1719.41	111875
1718.42	111943
1717.44	112545
1716.45	111992
1715.47	112202
1714.48	112204
1713.49	111992
1712.51	111344
1711.52	111387
1710.53	110888
1709.54	111854
1708.56	111318
1707.57	111610
1706.58	111704
1705.59	112208
1704.61	111548
1703.62	110926
1702.63	111370
1701.64	111969
1700.65	111445
1699.66	111798
1698.67	111252
1697.68	112005
1696.69	112158
1695.7	112032
1694.71	112053
1693.72	111623
1692.73	111987
1691.74	112392
1690.75	112146
1689.75	112957
1688.76	112761
1687.77	113162
1686.78	113235
1685.79	113139
1684.79	113455
1683.8	113741
1682.81	113640
1681.82	113750
1680.82	114314
1679.83	114381
1678.84	113962
1677.84	114328
1676.85	115161
1675.85	115326
1674.86	115410
1673.87	116311
1672.87	115243
1671.88	116186
1670.88	116926
1669.89	116980
1668.89	117249
1667.89	117608
1666.9	118189
1665.9	118015
1664.91	118971
1663.91	119272
1662.91	119038
1661.92	120058
1660.92	119891
1659.92	119959
1658.92	120277
1657.92	120797
1656.93	121855
1655.93	121494
1654.93	121866
1653.93	121933
1652.93	122671
1651.93	122846
1650.93	123310
1649.93	123696
1648.94	123601
1647.94	124363
1646.94	124238
1645.94	125453
1644.93	125520
1643.93	125778
1642.93	126571
1641.93	127292
1640.93	127415
1639.93	128105
1638.93	128604
1637.93	129286
1636.92	129747
1635.92	130262
1634.92	131207
1633.92	131682
1632.91	132537
1631.91	133533
1630.91	134330
1629.9	135305
1628.9	136089
1627.9	137016
1626.89	137849
1625.89	138952
1624.88	139707
1623.88	141290
1622.87	142084
1621.87	144364
1620.86	145033
1619.86	146551
1618.85	148921
1617.85	150398
1616.84	151234
1615.83	153729
1614.83	155388
1613.82	156442
1612.81	158309
1611.81	160505
1610.8	162927
1609.79	164787
1608.78	166176
1607.78	168707
1606.77	170382
1605.76	172283
1604.75	175105
1603.74	176743
1602.73	179668
1601.72	182546
1600.71	183905
1599.7	187209
1598.69	189677
1597.68	193156
1596.67	195298
1595.66	197745
1594.65	201982
1593.64	204138
1592.63	205922
1591.62	208515
1590.61	211914
1589.6	214211
1588.58	215974
1587.57	218218
1586.56	221431
1585.55	223693
1584.54	226826
1583.52	229430
1582.51	231625
1581.5	235547
1580.48	237064
1579.47	240653
1578.46	243424
1577.44	246694
1576.43	248716
1575.41	250214
1574.4	251377
1573.38	254687
1572.37	255541
1571.35	258176
1570.34	259578
1569.32	261336
1568.3	263244
1567.29	263820
1566.27	265739
1565.25	268386
1564.24	269597
1563.22	271763
1562.2	274574
1561.19	276584
1560.17	279655
1559.15	281680
1558.13	284975
1557.12	286619
1556.1	290556
1555.08	292244
1554.06	295015
1553.04	297442
1552.02	299004
1551	300770
1549.98	302554
1548.96	305466
1547.94	306097
1546.92	308297
1545.9	309386
1544.88	310955
1543.86	313420
1542.84	314659
1541.82	316647
1540.79	318564
1539.77	322330
1538.75	322981
1537.73	325580
1536.71	327988
1535.68	329686
1534.66	332567
1533.64	334120
1532.61	335687
1531.59	337261
1530.57	339376
1529.54	341868
1528.52	342204
1527.49	343245
1526.47	345127
1525.45	346154
1524.42	347000
1523.4	347070
1522.37	346768
1521.34	347814
1520.32	350433
1519.29	349954
1518.27	350338
1517.24	349731
1516.21	351117
1515.19	351462
1514.16	351371
1513.13	351673
1512.1	352042
1511.08	353329
1510.05	354313
1509.02	356142
1507.99	357048
1506.96	359120
1505.94	360288
1504.91	358907
1503.88	361544
1502.85	362621
1501.82	361396
1500.79	362993
1499.76	364937
1498.73	364715
1497.7	364191
1496.67	364627
1495.64	366192
1494.61	367846
1493.58	366945
1492.54	368768
1491.51	368615
1490.48	370617
1489.45	371376
1488.42	370827
1487.38	372620
1486.35	374181
1485.32	374698
1484.28	374681
1483.25	373867
1482.22	373415
1481.18	374278
1480.15	372850
1479.12	372239
1478.08	371003
1477.05	369184
1476.01	367282
1474.98	365338
1473.94	364464
1472.91	362411
1471.87	360182
1470.83	358260
1469.8	355452
1468.76	353735
1467.73	351037
1466.69	348016
1465.65	346237
1464.61	342342
1463.58	340373
1462.54	338945
1461.5	336186
1460.46	335301
1459.42	332858
1458.39	332219
1457.35	330581
1456.31	327316
1455.27	327339
1454.23	326031
1453.19	323983
1452.15	321237
1451.11	319370
1450.07	318544
1449.03	315685
1447.99	314216
1446.95	311773
1445.91	310188
1444.87	310179
1443.83	307971
1442.78	305634
1441.74	304300
1440.7	303318
1439.66	302983
1438.62	301581
1437.57	301079
1436.53	301922
1435.49	300466
1434.44	300104
1433.4	298751
1432.36	298220
1431.31	297600
1430.27	298262
1429.22	298453
1428.18	297674
1427.13	297322
1426.09	296382
1425.04	296216
1424	297132
1422.95	297426
1421.91	299083
1420.86	298736
1419.81	301414
1418.77	302824
1417.72	304767
1416.67	304509
1415.63	305129
1414.58	305856
1413.53	306087
1412.48	306148
1411.44	305975
1410.39	303958
1409.34	306579
1408.29	305839
1407.24	306956
1406.19	306847
1405.14	307121
1404.09	307176
1403.04	307739
1401.99	306002
1400.94	305182
1399.89	303455
1398.84	302305
1397.79	299679
1396.74	298331
1395.69	296450
1394.64	295906
1393.58	292642
1392.53	291955
1391.48	290640
1390.43	288505
1389.38	287672
1388.32	286130
1387.27	283420
1386.22	282223
1385.16	282183
1384.11	279701
1383.05	277299
1382	275636
1380.95	274634
1379.89	273628
1378.84	272451
1377.78	271068
1376.73	270335
1375.67	271218
1374.62	270053
1373.56	270217
1372.5	270538
1371.45	270702
1370.39	271148
1369.33	271770
1368.28	272991
1367.22	272798
1366.16	274216
1365.1	274938
1364.05	273615
1362.99	275364
1361.93	275116
1360.87	274836
1359.81	274986
1358.75	275806
1357.69	274085
1356.63	274707
1355.58	272839
1354.52	272226
1353.46	271317
1352.4	270861
1351.33	268338
1350.27	267139
1349.21	265131
1348.15	264757
1347.09	263154
1346.03	261737
1344.97	262285
1343.91	261206
1342.84	260372
1341.78	259326
1340.72	260313
1339.66	260545
1338.59	259011
1337.53	258948
1336.46	258075
1335.4	257799
1334.34	255803
1333.27	256206
1332.21	253501
1331.14	252889
1330.08	252245
1329.01	250631
1327.95	251033
1326.88	249906
1325.82	248927
1324.75	248789
1323.68	247700
1322.62	247060
1321.55	248190
1320.48	245919
1319.42	246491
1318.35	246055
1317.28	245708
1316.21	246637
1315.15	246923
1314.08	247916
1313.01	248993
1311.94	249007
1310.87	250555
1309.8	249439
1308.73	251341
1307.67	252178
1306.59	253385
1305.53	254580
1304.46	255934
1303.38	257628
1302.31	257931
1301.24	258786
1300.17	261187
1299.1	261549
1298.03	262617
1296.96	262723
1295.88	264074
1294.81	265326
1293.74	265362
1292.67	267674
1291.59	268742
1290.52	270088
1289.45	272131
1288.38	273450
1287.3	274355
1286.23	274665
1285.15	276520
1284.08	276993
1283	278175
1281.93	278784
1280.85	278520
1279.78	279472
1278.7	277930
1277.63	277226
1276.55	276065
1275.47	276051
1274.4	274166
1273.32	272951
1272.25	270776
1271.17	269846
1270.09	268692
1269.01	267725
1267.93	266302
1266.86	265020
1265.78	264311
1264.7	264152
1263.62	263592
1262.54	262263
1261.46	259721
1260.38	259432
1259.3	256993
1258.22	256743
1257.14	255272
1256.06	253767
1254.98	252267
1253.9	250887
1252.82	249639
1251.74	248452
1250.66	247831
1249.58	247789
1248.5	247475
1247.41	245916
1246.33	245989
1245.25	245876
1244.17	247022
1243.08	247249
1242	246393
1240.92	247082
1239.83	245546
1238.75	246135
1237.67	245744
1236.58	245319
1235.5	245196
1234.41	245207
1233.33	245732
1232.24	246190
1231.16	244524
1230.07	245174
1228.98	244330
1227.9	244116
1226.81	243930
1225.72	243927
1224.64	244151
1223.55	242409
1222.46	242357
1221.38	242539
1220.29	242688
1219.2	242642
1218.11	242660
1217.02	243103
1215.93	243521
1214.85	244721
1213.76	246479
1212.67	247684
1211.58	248256
1210.49	249591
1209.4	251917
1208.31	253164
1207.22	253960
1206.13	256238
1205.04	257597
1203.94	258516
1202.85	258893
1201.76	261031
1200.67	261685
1199.58	261740
1198.49	263545
1197.39	263885
1196.3	264777
1195.21	265389
1194.11	267402
1193.02	268459
1191.93	269221
1190.83	270352
1189.74	274226
1188.64	274958
1187.55	277264
1186.46	280281
1185.36	283494
1184.26	286763
1183.17	291697
1182.07	295022
1180.98	299365
1179.88	301551
1178.79	304951
1177.69	307162
1176.59	311270
1175.49	314578
1174.4	316942
1173.3	319711
1172.2	321656
1171.1	325058
1170	328302
1168.91	330448
1167.81	332971
1166.71	335156
1165.61	336968
1164.51	339971
1163.41	340511
1162.31	341345
1161.21	342167
1160.11	343069
1159.01	343503
1157.91	344015
1156.81	343499
1155.71	343199
1154.61	342654
1153.5	341371
1152.4	340321
1151.3	338908
1150.2	338066
1149.09	336302
1147.99	335165
1146.89	334391
1145.79	333540
1144.68	333248
1143.58	333140
1142.47	331300
1141.37	328560
1140.26	328363
1139.16	326741
1138.05	324639
1136.95	322077
1135.84	318340
1134.74	316375
1133.63	312215
1132.53	308649
1131.42	307425
1130.31	301553
1129.21	298544
1128.1	296536
1126.99	292113
1125.88	290163
1124.78	287882
1123.67	284801
1122.56	283197
1121.45	280617
1120.34	276846
1119.23	274818
1118.12	272161
1117.02	268182
1115.91	264589
1114.8	262061
1113.69	259063
1112.58	256073
1111.47	253636
1110.35	249467
1109.24	247162
1108.13	243679
1107.02	242022
1105.91	239792
1104.8	236808
1103.68	234707
1102.57	232558
1101.46	228629
1100.35	227198
1099.23	224311
1098.12	221399
1097.01	219640
1095.89	217816
1094.78	215050
1093.66	212620
1092.55	210286
1091.44	208396
1090.32	207073
1089.21	204375
1088.09	203307
1086.97	201425
1085.86	200381
1084.74	198937
1083.62	197932
1082.51	198173
1081.39	195459
1080.27	195549
1079.16	194028
1078.04	192639
1076.92	191583
1075.8	190705
1074.68	190043
1073.57	189431
1072.45	188058
1071.33	187351
1070.21	186735
1069.09	184758
1067.97	185308
1066.85	183953
1065.73	182607
1064.61	182713
1063.49	181832
1062.37	180779
1061.25	179570
1060.12	179172
1059	177665
1057.88	177075
1056.76	175517
1055.64	174808
1054.51	172730
1053.39	171820
1052.27	169850
1051.15	168746
1050.02	167360
1048.9	165838
1047.77	165088
1046.65	163197
1045.53	163204
1044.4	161560
1043.28	161143
1042.15	160073
1041.02	159637
1039.9	157922
1038.77	158988
1037.65	157576
1036.52	157278
1035.39	157136
1034.27	157825
1033.14	156924
1032.01	156422
1030.88	157294
1029.76	157394
1028.63	156661
1027.5	156471
1026.37	155818
1025.24	155456
1024.11	155471
1022.99	154949
1021.86	154003
1020.73	153647
1019.6	152523
1018.47	152187
1017.33	150694
1016.2	151198
1015.07	150903
1013.94	150075
1012.81	149999
1011.68	150427
1010.55	150580
1009.42	150561
1008.28	150351
1007.15	151416
1006.02	150801
1004.88	152529
1003.75	154088
1002.62	155256
1001.48	157059
1000.35	159784
999.215	161212
998.08	161109
996.945	160013
995.811	158011
994.675	158675
993.54	157484
992.404	156635
991.268	157581
990.132	158757
988.995	159363
987.858	159684
986.722	161251
985.584	160948
984.446	161121
983.309	161138
982.171	161009
981.033	161113
979.895	161890
978.756	160974
977.617	160966
976.478	162167
975.338	160264
974.198	161290
973.059	161867
971.919	162326
970.778	162300
969.638	162139
968.497	162255
967.355	162009
966.215	161990
965.073	162738
963.931	161447
962.789	162263
961.646	162499
960.504	162519
959.361	163243
958.218	162580
957.075	162596
955.932	163502
954.788	163097
953.644	163715
952.499	164179
951.354	163817
950.21	164513
949.065	166189
947.92	166326
946.774	166079
945.629	166635
944.482	166865
943.337	166486
942.19	166761
941.043	166484
939.896	166685
938.749	166533
937.602	167196
936.454	167844
935.306	168066
934.158	167755
933.01	166574
931.861	165004
930.712	164988
929.562	163560
928.413	162506
927.264	161016
926.114	159615
924.964	158672
923.813	157446
922.663	156088
921.512	155011
920.36	154872
919.209	154744
918.058	152968
916.906	152836
915.754	151474
914.602	151822
913.449	151239
912.296	149874
911.143	149155
909.989	148512
908.836	147153
907.683	146647
906.528	145377
905.374	145473
904.219	144150
903.064	144693
901.909	143558
900.754	144116
899.599	143290
898.442	143548
897.286	143452
896.13	142388
894.974	142859
893.817	143429
892.66	143211
891.503	144153
890.345	144391
889.188	145259
888.029	145428
886.871	145479
885.712	145824
884.554	146087
883.395	145591
882.235	145341
881.076	145623
879.916	145079
878.756	145381
877.596	145592
876.436	145353
875.274	144809
874.113	145818
872.952	146057
871.791	146210
870.629	146624
869.467	146312
868.305	147011
867.142	147479
865.979	146918
864.816	146927
863.653	147711
862.489	147408
861.326	147376
860.162	147713
858.997	146999
857.833	146871
856.668	145619
855.503	145743
854.338	145370
853.172	144837
852.007	144312
850.841	144363
849.674	144110
848.508	144717
847.341	145277
846.174	144358
845.007	144523
843.839	144119
842.672	144067
841.504	143162
840.335	143267
839.167	143456
837.998	143532
836.829	143267
835.659	142838
834.49	143230
833.32	142642
832.15	141428
830.979	141559
829.81	140182
828.639	140252
827.468	139556
826.296	139463
825.125	139093
823.953	138952
822.781	138004
821.608	137340
820.436	137319
819.264	137482
818.09	137109
816.917	136436
815.743	136313
814.569	134615
813.396	134878
812.221	134279
811.047	132847
809.872	132172
808.696	130948
807.521	130615
806.346	130214
805.17	129493
803.994	129571
802.817	129810
801.641	129291
800.464	128931
799.287	128774
798.109	127936
796.932	127181
795.754	127617
794.576	126150
793.397	126273
792.219	125808
791.04	125627
789.86	124124
788.682	124804
787.502	124275
786.322	124280
785.142	124688
783.961	124838
782.78	124320
781.6	123835
780.419	123144
779.237	123052
778.056	122916
776.873	121297
775.691	121869
774.509	120790
773.326	120882
772.143	120201
770.96	119853
769.776	118771
768.593	118661
767.408	118734
766.225	117891
765.04	118790
763.855	118226
762.67	117907
761.484	117537
760.299	117053
759.113	117404
757.928	117811
756.741	118042
755.555	119034
754.368	119451
753.181	119117
751.993	119892
750.806	119927
749.618	119375
748.43	119393
747.241	118462
746.053	117705
744.864	116856
743.675	117085
742.485	116574
741.296	116774
740.106	116682
738.916	116575
737.726	116201
736.535	116600
735.344	116359
734.152	116102
732.961	114890
731.77	114305
730.577	114418
729.386	114061
728.192	114792
727	115283
725.807	115561
724.614	116128
723.42	116151
722.227	116061
721.032	116908
719.838	116605
718.644	116342
717.449	116378
716.254	116754
715.059	115725
713.863	116071
712.667	115902
711.471	116514
710.274	116703
709.078	116838
707.881	117413
706.684	117719
705.486	119648
704.289	119973
703.091	120945
701.893	121561
700.694	122278
699.495	122669
698.297	122767
697.098	123266
695.897	123341
694.698	123582
693.498	123957
692.298	124138
691.098	124889
689.896	125477
688.695	125131
687.494	125454
686.293	125945
685.091	126317
683.889	125942
682.687	126850
681.483	125885
680.28	126938
679.077	126927
677.874	127570
676.671	128088
675.467	128106
674.263	127871
673.058	128137
671.854	126796
670.648	126430
669.443	126388
668.237	126311
667.031	126124
665.825	125643
664.619	125302
663.413	125014
662.206	124482
660.999	123994
659.792	123361
658.584	123163
657.376	122800
656.168	122104
654.96	121776
653.751	121509
652.542	121315
651.333	120574
650.123	120223
648.914	119912
647.704	120676
646.493	120290
645.283	121663
644.072	121305
642.861	121784
641.649	122039
640.438	121581
639.227	121906
638.015	122192
636.802	121541
635.589	121633
634.376	121570
633.163	121939
631.95	120954
630.736	120635
629.522	120132
628.308	120086
627.094	120802
625.879	121864
624.664	121792
623.448	120778
622.233	120082
621.018	119986
619.801	119706
618.585	119618
617.368	120226
616.151	119846
614.935	119677
613.717	118505
612.499	117213
611.281	116484
610.062	116400
608.845	116096
607.626	115965
606.407	116029
605.188	117111
603.968	117087
602.748	117080
601.528	117222
600.308	117225
599.087	116703
597.866	117037
596.646	117325
595.424	116345
594.202	117329
592.98	116708
591.758	115582
590.535	114903
589.312	114220
588.09	113790
586.866	113216
585.643	112717
584.419	111571
583.195	111559
581.971	111268
580.746	110666
579.521	110995
578.296	110871
577.07	111894
575.845	112040
574.619	112507
573.393	112275
572.166	111653
570.939	112023
569.713	112201
568.485	111511
567.258	111768
566.029	111841
564.802	111448
563.573	111545
562.345	111816
561.115	112564
559.887	112993
558.657	113428
557.428	113694
556.197	114388
554.967	114984
553.736	115271
552.506	115589
551.274	116529
550.043	115456
548.812	115936
547.58	115955
546.348	116768
545.115	117053
543.883	117236
542.649	117729
541.416	118192
540.183	117944
538.949	118521
537.715	118885
536.48	118939
535.246	120030
534.011	121044
532.775	121816
531.54	122934
530.305	124400
529.068	126015
527.833	129655
526.596	134876
525.359	145579
524.122	167616
522.885	213994
521.647	298264
520.409	398356
519.171	425382
517.933	349115
516.694	244930
515.455	182656
514.216	157287
512.977	144643
511.736	138668
510.497	134445
509.257	130874
508.016	130562
506.774	128695
505.534	128450
504.292	127934
503.051	126976
501.809	126326
500.566	126531
499.324	125767
498.081	125299
496.838	125796
495.595	125414
494.352	126395
493.107	126141
491.863	126726
490.619	126218
489.374	126896
488.129	126932
486.884	127728
485.639	127328
484.393	127572
483.146	128299
481.9	128077
480.653	127253
479.406	127293
478.159	126938
476.912	127253
475.664	128009
474.416	127574
473.168	127606
471.919	127647
470.67	127212
469.421	126614
468.172	127439
466.922	126299
465.672	126791
464.422	126295
463.172	127466
461.921	127179
460.67	126810
459.418	127077
458.167	126804
456.915	127472
455.663	128488
454.41	128555
453.157	129930
451.904	130066
450.651	130178
449.397	130398
448.145	129930
446.89	129798
445.636	128294
444.381	128078
443.126	127414
441.871	126962
440.615	126537
439.359	125846
438.104	126021
436.848	126639
435.591	126312
434.334	126599
433.076	126699
431.819	127871
430.562	128322
429.304	130430
428.045	130755
426.787	132330
425.528	133796
424.269	135040
423.01	137055
421.75	139157
420.49	140435
419.229	141287
417.969	141651
416.708	142634
415.447	142070
414.186	142715
412.924	142328
411.662	142141
410.4	142070
409.138	141553
407.875	141125
406.612	141747
405.349	142029
404.085	142557
402.821	142513
401.557	143545
400.293	142607