File: Finalized Code/Tuned Standard Models/RAMAN Data MITACs/TULSI/PMMA on Si substrate/Si-hydrophobic-blank with PMMA-2.txt
#Wave		#Intensity
1800.53	17528.8
1799.56	17801.1
1798.59	17622.9
1797.62	17696.4
1796.65	17623.6
1795.68	17712.4
1794.71	17752.5
1793.74	17679.7
1792.77	17637.7
1791.8	17677.8
1790.83	17725.5
1789.86	17657.9
1788.89	17433.9
1787.92	17755.9
1786.94	17696
1785.97	17928.1
1785	17573.6
1784.03	17547.1
1783.05	17720.2
1782.08	17665.5
1781.11	17725.9
1780.13	17955.2
1779.16	18069.2
1778.19	17684.6
1777.21	17706.6
1776.24	17922.9
1775.27	17704.6
1774.29	17795.6
1773.32	17684.8
1772.34	17931.6
1771.37	17601.1
1770.39	17883.5
1769.42	17887.6
1768.44	18019.3
1767.46	17747.7
1766.49	18032.5
1765.51	18046.7
1764.54	17943.6
1763.56	17884
1762.58	17893.1
1761.61	18175
1760.63	18041.4
1759.65	18040.3
1758.67	17853.3
1757.7	18374.3
1756.72	17846.1
1755.74	18270.2
1754.76	17991.7
1753.78	17949.9
1752.8	17913.2
1751.83	18105.5
1750.85	17967.1
1749.87	18192.3
1748.89	18056.5
1747.91	17963.9
1746.93	18135.6
1745.95	18139.6
1744.97	18097.9
1743.99	18127.3
1743.01	18491.8
1742.03	17952.4
1741.04	18091
1740.06	18160.9
1739.08	18289.2
1738.1	18146
1737.12	18023.2
1736.14	18209.7
1735.15	18109.7
1734.17	18334.2
1733.19	18363.5
1732.21	18164.7
1731.22	18510.6
1730.24	18567.7
1729.26	18168.9
1728.27	18322.2
1727.29	18442.6
1726.3	18284.5
1725.32	18495.9
1724.34	18251.9
1723.35	18402.5
1722.37	18363.4
1721.38	18713.6
1720.4	18467.2
1719.41	18428.1
1718.42	18654.3
1717.44	18352.5
1716.45	18192.2
1715.47	18287
1714.48	18480.3
1713.49	18577.5
1712.51	18318.9
1711.52	18625.5
1710.53	18684.8
1709.54	18794.5
1708.56	18609.2
1707.57	18459.3
1706.58	18745.4
1705.59	18844.9
1704.61	18911.7
1703.62	18897.8
1702.63	18815.9
1701.64	19134.4
1700.65	19027.3
1699.66	18872.5
1698.67	19188.3
1697.68	19186.9
1696.69	19130.2
1695.7	19284.8
1694.71	19429.2
1693.72	19880.3
1692.73	19929.1
1691.74	20070.8
1690.75	20735
1689.75	20688.1
1688.76	20864.7
1687.77	21252.2
1686.78	21887.9
1685.79	22214.8
1684.79	22840.1
1683.8	22958.4
1682.81	23322.5
1681.82	23137.2
1680.82	23942.3
1679.83	23646.7
1678.84	24180.8
1677.84	24652
1676.85	24311.3
1675.85	24539.3
1674.86	24942.5
1673.87	24554.5
1672.87	25050.1
1671.88	24822.3
1670.88	24864.8
1669.89	24684.7
1668.89	24772.3
1667.89	24572.2
1666.9	24337.3
1665.9	24094.9
1664.91	23782.7
1663.91	23667.9
1662.91	23303.5
1661.92	22619.4
1660.92	22362.7
1659.92	22001.2
1658.92	21223
1657.92	21148.8
1656.93	20937.5
1655.93	20738.7
1654.93	20632.2
1653.93	20184.2
1652.93	20207.6
1651.93	20081.4
1650.93	20092.3
1649.93	19567.5
1648.94	19533.7
1647.94	19562.1
1646.94	19590.5
1645.94	19631.3
1644.93	19445.7
1643.93	19357.1
1642.93	19002.4
1641.93	19222.5
1640.93	19362.8
1639.93	19095.3
1638.93	19208.3
1637.93	18988.2
1636.92	19113.6
1635.92	19164.3
1634.92	19090.9
1633.92	19395
1632.91	19150.2
1631.91	19317.6
1630.91	19023.3
1629.9	19056.7
1628.9	19283.6
1627.9	19391.3
1626.89	19347.7
1625.89	19314
1624.88	19339.8
1623.88	19281.4
1622.87	19247.8
1621.87	19432.1
1620.86	19418.3
1619.86	19429.2
1618.85	19638.2
1617.85	19146.6
1616.84	19543.6
1615.83	19408.5
1614.83	19659.4
1613.82	19798.9
1612.81	19522.8
1611.81	19909.5
1610.8	19865.9
1609.79	20153.5
1608.78	20586.8
1607.78	20533.2
1606.77	20751.3
1605.76	21932.3
1604.75	22816.7
1603.74	24288.1
1602.73	25966.2
1601.72	28758.8
1600.71	31042.2
1599.7	33941.2
1598.69	35564.2
1597.68	35118.2
1596.67	34534.3
1595.66	32491.7
1594.65	31026.6
1593.64	28793.5
1592.63	27186.8
1591.62	25674.4
1590.61	24817.4
1589.6	23810.6
1588.58	23441.5
1587.57	22661.8
1586.56	22032.4
1585.55	21745.1
1584.54	21696.4
1583.52	21465.8
1582.51	21267.3
1581.5	21250.7
1580.48	21177.6
1579.47	21546.7
1578.46	21451.4
1577.44	21636.1
1576.43	21113.7
1575.41	20908.2
1574.4	20555.5
1573.38	20507.2
1572.37	20530
1571.35	20408.1
1570.34	20019
1569.32	19970.8
1568.3	19856.5
1567.29	19921
1566.27	19578.9
1565.25	19469.6
1564.24	19566
1563.22	19471.5
1562.2	19325.5
1561.19	19649.5
1560.17	19300.5
1559.15	19348
1558.13	19483.5
1557.12	19259.4
1556.1	19404.6
1555.08	19542.4
1554.06	19201.2
1553.04	19375.7
1552.02	19420.6
1551	19318.9
1549.98	19158.7
1548.96	19391.6
1547.94	19324.2
1546.92	19352
1545.9	19152.9
1544.88	19234.3
1543.86	19208.5
1542.84	19338.7
1541.82	19154.3
1540.79	19187
1539.77	19339
1538.75	19054.9
1537.73	19255.6
1536.71	19222.5
1535.68	19155.2
1534.66	19141.6
1533.64	19283.7
1532.61	19063.2
1531.59	19446.2
1530.57	19388.7
1529.54	19411.5
1528.52	19271.4
1527.49	19126.4
1526.47	19521.1
1525.45	19577.9
1524.42	19173
1523.4	19132.7
1522.37	19276.9
1521.34	19316.7
1520.32	19521.5
1519.29	19248.1
1518.27	19586.3
1517.24	19674.5
1516.21	19386.7
1515.19	19392.4
1514.16	19405.5
1513.13	19457.2
1512.1	19659.3
1511.08	19558.3
1510.05	19389.6
1509.02	19613.3
1507.99	19439.8
1506.96	19394.7
1505.94	19482.7
1504.91	19345.6
1503.88	19549.7
1502.85	19499.8
1501.82	19522.4
1500.79	19375.7
1499.76	19763.4
1498.73	19682
1497.7	19627.2
1496.67	19393.7
1495.64	19882.5
1494.61	20052.3
1493.58	20048.2
1492.54	20217.9
1491.51	20056.9
1490.48	20168.6
1489.45	20191
1488.42	20353.3
1487.38	19934.4
1486.35	20072.6
1485.32	19733.4
1484.28	19751
1483.25	19715.6
1482.22	19641.7
1481.18	19611.2
1480.15	19677
1479.12	19713.9
1478.08	19582.3
1477.05	19819
1476.01	19798.1
1474.98	19955.2
1473.94	19958.3
1472.91	19968.7
1471.87	20003
1470.83	19941.3
1469.8	20228
1468.76	20317.5
1467.73	20217.3
1466.69	20446.1
1465.65	20331.4
1464.61	20661
1463.58	20359.1
1462.54	20815.7
1461.5	20713
1460.46	21071
1459.42	21227.4
1458.39	20976.1
1457.35	21456
1456.31	21233.5
1455.27	21094.9
1454.23	20879.8
1453.19	21043.2
1452.15	20988.6
1451.11	20787.9
1450.07	21171.4
1449.03	21116.8
1447.99	21143.6
1446.95	21433.5
1445.91	21764
1444.87	21434.3
1443.83	21544.7
1442.78	21188.8
1441.74	21418.7
1440.7	21509.9
1439.66	21020.5
1438.62	21147.6
1437.57	21102.6
1436.53	21117.4
1435.49	21046.2
1434.44	20946.4
1433.4	20469.7
1432.36	20472.6
1431.31	20098.7
1430.27	20359.3
1429.22	19952.2
1428.18	19931.4
1427.13	20025
1426.09	20009
1425.04	20219.3
1424	20148.4
1422.95	19706.1
1421.91	19975.9
1420.86	19779
1419.81	19705.9
1418.77	19930.2
1417.72	19888.1
1416.67	19850.7
1415.63	19853.7
1414.58	20032.7
1413.53	19824.2
1412.48	19884.2
1411.44	20065.4
1410.39	19669.4
1409.34	19928.9
1408.29	19803.8
1407.24	20108.3
1406.19	20144.5
1405.14	19952.9
1404.09	19782.7
1403.04	19731.2
1401.99	19931.1
1400.94	20289.7
1399.89	19994
1398.84	19719.7
1397.79	20104.2
1396.74	19955.5
1395.69	19963.3
1394.64	19992.3
1393.58	20343.3
1392.53	20194.7
1391.48	20190.5
1390.43	20387.5
1389.38	20246.1
1388.32	20298.7
1387.27	20320.5
1386.22	20611.8
1385.16	20728.1
1384.11	20300.8
1383.05	20511.6
1382	20613.7
1380.95	20644.9
1379.89	20777.5
1378.84	20624.5
1377.78	20393.7
1376.73	20401.3
1375.67	20286.2
1374.62	20499
1373.56	20225.9
1372.5	20540.1
1371.45	20109.2
1370.39	20215.8
1369.33	20284.6
1368.28	20200.4
1367.22	20452.9
1366.16	20076.6
1365.1	20030.1
1364.05	20181.3
1362.99	20073.6
1361.93	20215.3
1360.87	20138.2
1359.81	20282.2
1358.75	20202.8
1357.69	20078.7
1356.63	20138
1355.58	20162.1
1354.52	20315.3
1353.46	20036.3
1352.4	19980.5
1351.33	20072.6
1350.27	20174.1
1349.21	20200.4
1348.15	20154
1347.09	20060.7
1346.03	20138.6
1344.97	20043
1343.91	20118.6
1342.84	20252.7
1341.78	20016.5
1340.72	20284.2
1339.66	20308.1
1338.59	20018.1
1337.53	19915.6
1336.46	20222.9
1335.4	20052.5
1334.34	20254.3
1333.27	20039.5
1332.21	20241.2
1331.14	19935.3
1330.08	20071.5
1329.01	20191.2
1327.95	20042.1
1326.88	19981.9
1325.82	20381.9
1324.75	20162.8
1323.68	20137.6
1322.62	20156.8
1321.55	20159.6
1320.48	20295.5
1319.42	20344.9
1318.35	20427
1317.28	20579.1
1316.21	20416.2
1315.15	20363
1314.08	20405.4
1313.01	20329
1311.94	20613.7
1310.87	19922.2
1309.8	20204.5
1308.73	20316.7
1307.67	20079.7
1306.59	20264.1
1305.53	20343.7
1304.46	20188.2
1303.38	20312
1302.31	20286.8
1301.24	20143.1
1300.17	20338.8
1299.1	20183.5
1298.03	20095.7
1296.96	20488.8
1295.88	20052.5
1294.81	20248
1293.74	19932.7
1292.67	20283.7
1291.59	20467.5
1290.52	20377.4
1289.45	20438.1
1288.38	20306.3
1287.3	20670.8
1286.23	20775.5
1285.15	20639
1284.08	20885
1283	20586.4
1281.93	21003.7
1280.85	21082.8
1279.78	21277.5
1278.7	20949
1277.63	21500.1
1276.55	21611.3
1275.47	21599.9
1274.4	21701.8
1273.32	21722.7
1272.25	22078.9
1271.17	21706.8
1270.09	21921.8
1269.01	21873.3
1267.93	22002.8
1266.86	22039.8
1265.78	22418.5
1264.7	22243
1263.62	22543.1
1262.54	22651.5
1261.46	22247.6
1260.38	22452.9
1259.3	22870.3
1258.22	22600.3
1257.14	22505.7
1256.06	22597.8
1254.98	22217.5
1253.9	22030.8
1252.82	22090.7
1251.74	21929.5
1250.66	21913.4
1249.58	21948
1248.5	21858.3
1247.41	21773.2
1246.33	21389
1245.25	21646.8
1244.17	21559.5
1243.08	21260.7
1242	21483.8
1240.92	21113.9
1239.83	21493.3
1238.75	21141.9
1237.67	21020.3
1236.58	21112.4
1235.5	21036.8
1234.41	20972.8
1233.33	21007.4
1232.24	20936.5
1231.16	20805.9
1230.07	20572.2
1228.98	20866
1227.9	20845.6
1226.81	20866.5
1225.72	20763.6
1224.64	20608
1223.55	20551.1
1222.46	20526.2
1221.38	20320.4
1220.29	20618.3
1219.2	20339.4
1218.11	20598.2
1217.02	20758.7
1215.93	20701.7
1214.85	20750
1213.76	20777.7
1212.67	20974.5
1211.58	20817
1210.49	20787.5
1209.4	20787.7
1208.31	20735.4
1207.22	20605.5
1206.13	20566.9
1205.04	20861.6
1203.94	20686.1
1202.85	20980.6
1201.76	20944.3
1200.67	21012.9
1199.58	21275.3
1198.49	21453.2
1197.39	21719.9
1196.3	21774.6
1195.21	21806.5
1194.11	22234.7
1193.02	22405.4
1191.93	22739.9
1190.83	23338.4
1189.74	23272.1
1188.64	23651.7
1187.55	23332.8
1186.46	23441.7
1185.36	23143.4
1184.26	23127.2
1183.17	23261
1182.07	23312.9
1180.98	23423.9
1179.88	23564.4
1178.79	23945.5
1177.69	24183.5
1176.59	24627.9
1175.49	24772.5
1174.4	25035
1173.3	25349.7
1172.2	25342.1
1171.1	25364
1170	25388.1
1168.91	25276.3
1167.81	25039.8
1166.71	24996.1
1165.61	24564.9
1164.51	25121.5
1163.41	24686
1162.31	25190.2
1161.21	25397.6
1160.11	25446.6
1159.01	25678.8
1157.91	25055.9
1156.81	24367.7
1155.71	23973.7
1154.61	23439.7
1153.5	23052.8
1152.4	22681.9
1151.3	22559.7
1150.2	22765
1149.09	22599.9
1147.99	21976.5
1146.89	22105.1
1145.79	22220
1144.68	22156.7
1143.58	22043.8
1142.47	21962.4
1141.37	21786.5
1140.26	21603.8
1139.16	21666.9
1138.05	21664.6
1136.95	21403.2
1135.84	21497.8
1134.74	21443.7
1133.63	21605.8
1132.53	21423.4
1131.42	21306.4
1130.31	21409.9
1129.21	21391.9
1128.1	21673.1
1126.99	21254.7
1125.88	21128.9
1124.78	21349.2
1123.67	21331.2
1122.56	21212.1
1121.45	21153.8
1120.34	21073
1119.23	21167.3
1118.12	21030.4
1117.02	20981.1
1115.91	20875.7
1114.8	20934.1
1113.69	20992.5
1112.58	20961.2
1111.47	20829
1110.35	20643
1109.24	20580.4
1108.13	20567.1
1107.02	20775.6
1105.91	20724.2
1104.8	20941.5
1103.68	20775.9
1102.57	20664.1
1101.46	21060.3
1100.35	21100.6
1099.23	20677.8
1098.12	20633.2
1097.01	20814.5
1095.89	20709.5
1094.78	20680.5
1093.66	20604.6
1092.55	20493.1
1091.44	20560.2
1090.32	20533.5
1089.21	20687.7
1088.09	20699
1086.97	20576.3
1085.86	20458.2
1084.74	20621.2
1083.62	20726.1
1082.51	20753
1081.39	20724.1
1080.27	20606
1079.16	20795.5
1078.04	20670.8
1076.92	20789
1075.8	20784.6
1074.68	20559.8
1073.57	20945
1072.45	20335.2
1071.33	20747
1070.21	20629.2
1069.09	20609.2
1067.97	20591.5
1066.85	20678.3
1065.73	20620.6
1064.61	20938.5
1063.49	20627.5
1062.37	20620.9
1061.25	20705.4
1060.12	20425.6
1059	20776.5
1057.88	20885.3
1056.76	20809.9
1055.64	20716.7
1054.51	20763.4
1053.39	20736.8
1052.27	20606
1051.15	20674.8
1050.02	20743.6
1048.9	20894.3
1047.77	20903.2
1046.65	20923.1
1045.53	20940.8
1044.4	20845.6
1043.28	21261.8
1042.15	20947.4
1041.02	20969.6
1039.9	21281.4
1038.77	21407.4
1037.65	21937.9
1036.52	22081.4
1035.39	23075.7
1034.27	24968.9
1033.14	26755.2
1032.01	28520.9
1030.88	28698.2
1029.76	27817.8
1028.63	25871.7
1027.5	24200.1
1026.37	22937.3
1025.24	22429.5
1024.11	22160.1
1022.99	21756.3
1021.86	21661.3
1020.73	21423.1
1019.6	21616.9
1018.47	21592.4
1017.33	21676
1016.2	21715.4
1015.07	21633.7
1013.94	21816.3
1012.81	22154.9
1011.68	22068.8
1010.55	22405.1
1009.42	22697.3
1008.28	23424.7
1007.15	24848.7
1006.02	27237
1004.88	32441.4
1003.75	39849.5
1002.62	48049.5
1001.48	52214
1000.35	49465
999.215	42008.6
998.08	35472.7
996.945	30686.1
995.811	28297.2
994.675	26343.5
993.54	25594.6
992.404	25229.6
991.268	25848.9
990.132	25519.1
988.995	25478.6
987.858	25543.3
986.722	25404.3
985.584	25464.5
984.446	24863.7
983.309	24849.7
982.171	24555.5
981.033	24108.4
979.895	23683.3
978.756	23415.9
977.617	23209.7
976.478	22780.8
975.338	22952.9
974.198	22644.3
973.059	22879.8
971.919	22942.6
970.778	22769.6
969.638	22987.4
968.497	23318.7
967.355	23464.3
966.215	23498.5
965.073	23487
963.931	23824.4
962.789	23769.1
961.646	24195.7
960.504	24434.6
959.361	24442.5
958.218	24781.5
957.075	24582.3
955.932	24551
954.788	24158.2
953.644	24011.6
952.499	23858.5
951.354	23431.4
950.21	23293.7
949.065	23303.9
947.92	23238.1
946.774	23044
945.629	22891.3
944.482	22897.3
943.337	23005.4
942.19	22904.9
941.043	22852.2
939.896	22515.2
938.749	22907.6
937.602	23169.6
936.454	22926
935.306	23062.1
934.158	23141.8
933.01	22722.7
931.861	22947.7
930.712	22814.9
929.562	22452.5
928.413	22677.3
927.264	22312.9
926.114	22041.8
924.964	21900.7
923.813	21666.6
922.663	21759.4
921.512	21363.1
920.36	21304.5
919.209	21594
918.058	21345.1
916.906	21571.8
915.754	21480.8
914.602	21227.7
913.449	21348.5
912.296	21456.2
911.143	21376
909.989	21250.6
908.836	21120.8
907.683	21263.1
906.528	21139.8
905.374	21077.1
904.219	21042.4
903.064	21393.6
901.909	21093.7
900.754	20869.4
899.599	21287.3
898.442	20869.1
897.286	20935.7
896.13	21181
894.974	20941.8
893.817	20967.4
892.66	21206.1
891.503	21003.6
890.345	21085.2
889.188	21001.1
888.029	21170.8
886.871	21217.8
885.712	21039.2
884.554	20961.6
883.395	20955
882.235	21083.7
881.076	21104.9
879.916	20971.6
878.756	21338.4
877.596	20893.9
876.436	20964.5
875.274	20940.7
874.113	20867.6
872.952	20888.9
871.791	21043
870.629	20783.4
869.467	21299.7
868.305	21237.3
867.142	21344.1
865.979	20973.3
864.816	21245
863.653	21206.2
862.489	21201.7
861.326	21231.3
860.162	21526.3
858.997	21699.2
857.833	21934
856.668	21529.5
855.503	21834.8
854.338	21896.4
853.172	21951.5
852.007	21771.6
850.841	21585.4
849.674	21691.8
848.508	21702.1
847.341	21776.4
846.174	21705.6
845.007	21711.6
843.839	21681.3
842.672	21471.9
841.504	21934.2
840.335	21786.7
839.167	22099.5
837.998	22301.4
836.829	22458.5
835.659	22298.2
834.49	22419
833.32	22280.1
832.15	22283.8
830.979	22274.8
829.81	22078.5
828.639	21986.6
827.468	21752.2
826.296	21424.4
825.125	21506.9
823.953	21525.7
822.781	21342.6
821.608	21556.8
820.436	21375.9
819.264	21339.4
818.09	21237.2
816.917	21101
815.743	21136.8
814.569	21246.8
813.396	20881.7
812.221	21038.3
811.047	21383.6
809.872	20986.9
808.696	21073.5
807.521	20749
806.346	21263.5
805.17	21286.4
803.994	21150.6
802.817	21275.1
801.641	21463.1
800.464	21278.7
799.287	21479.3
798.109	21529.6
796.932	22127.6
795.754	21949.5
794.576	22020.8
793.397	21916.8
792.219	22108.5
791.04	21696.1
789.86	21480.2
788.682	21477.7
787.502	21232.4
786.322	21346
785.142	21444.8
783.961	20946.6
782.78	21100.2
781.6	21264.4
780.419	21213.4
779.237	21135
778.056	21294.8
776.873	21547.3
775.691	21287.8
774.509	21340
773.326	21211.2
772.143	21261.3
770.96	21149.4
769.776	21348.9
768.593	21012
767.408	20942.2
766.225	20962.9
765.04	21298.9
763.855	21027.4
762.67	21052.3
761.484	21278.8
760.299	21158.7
759.113	21120.5
757.928	21189.4
756.741	21243.6
755.555	21039.7
754.368	21014.1
753.181	21059.9
751.993	21055.4
750.806	21038.2
749.618	21165.8
748.43	21213.6
747.241	20861.2
746.053	20942.5
744.864	21002.9
743.675	21157.5
742.485	21263.9
741.296	21278.1
740.106	21313.3
738.916	20992.7
737.726	21276.9
736.535	20994.1
735.344	21301.1
734.152	21564
732.961	21316.9
731.77	21187
730.577	21270.1
729.386	21202.8
728.192	21081.3
727	21686.3
725.807	21681.6
724.614	21545.5
723.42	21745.2
722.227	21746.8
721.032	21735.8
719.838	21866.6
718.644	21978.6
717.449	21790.4
716.254	21625.3
715.059	21949.7
713.863	22042.8
712.667	22040.1
711.471	21614.8
710.274	21920.3
709.078	21809.4
707.881	21692.3
706.684	22226.3
705.486	22604.1
704.289	22782.2
703.091	23411.2
701.893	24547
700.694	25669.8
699.495	27704.1
698.297	29272.3
697.098	31390
695.897	32221.9
694.698	31961.7
693.498	30950.4
692.298	29321.4
691.098	27684.8
689.896	27195.6
688.695	26285.8
687.494	25621
686.293	24975.1
685.091	24027
683.889	23450
682.687	22912.7
681.483	22520.6
680.28	22157.5
679.077	21699.5
677.874	21754.8
676.671	21458.3
675.467	21594.3
674.263	21306.3
673.058	21498.1
671.854	21416.9
670.648	21265.6
669.443	21188.6
668.237	21326.5
667.031	21363.2
665.825	21098.4
664.619	21161.9
663.413	21190.3
662.206	21094.9
660.999	21162.5
659.792	21011.5
658.584	21326.5
657.376	21068.3
656.168	21236.8
654.96	21168.3
653.751	20947.4
652.542	21249.7
651.333	21348.1
650.123	21143.7
648.914	21139.1
647.704	21377.3
646.493	21273.9
645.283	20987.5
644.072	21077.5
642.861	21058.5
641.649	21160.8
640.438	21080.1
639.227	21248.1
638.015	21249.7
636.802	21173.1
635.589	21330.7
634.376	21527.3
633.163	21417.9
631.95	21325
630.736	21646.5
629.522	21849
628.308	21971.3
627.094	22196.2
625.879	22369.7
624.664	22735.7
623.448	23429.4
622.233	23633.2
621.018	23976.2
619.801	24687.7
618.585	26051.8
617.368	26379.7
616.151	25905.4
614.935	25015.9
613.717	24493
612.499	23657.4
611.281	23106.4
610.062	22457.4
608.845	22068.3
607.626	22037
606.407	21881
605.188	21774.1
603.968	21918.4
602.748	21770.7
601.528	21739.4
600.308	22057
599.087	22219.5
597.866	22424.7
596.646	22870.4
595.424	23195.7
594.202	23198.7
592.98	23434.1
591.758	23502.3
590.535	23075.6
589.312	23080.7
588.09	22564.6
586.866	22600.4
585.643	22322.7
584.419	21577.2
583.195	21800.3
581.971	21697.9
580.746	21678.9
579.521	21381.5
578.296	21569.9
577.07	21624.1
575.845	21479.1
574.619	21238.8
573.393	21550.9
572.166	21513.7
570.939	21586.1
569.713	21502.3
568.485	21678.1
567.258	21740.3
566.029	21768
564.802	21542.2
563.573	21942.9
562.345	21593.6
561.115	22095.4
559.887	21857.6
558.657	22047.2
557.428	21746.7
556.197	21656.9
554.967	21593.5
553.736	21671.7
552.506	21624.5
551.274	21678.4
550.043	21621
548.812	21632.4
547.58	21645.9
546.348	21701.8
545.115	21531.3
543.883	21637.7
542.649	21659.2
541.416	21414.2
540.183	21673.9
538.949	21856.8
537.715	21825.8
536.48	21689.9
535.246	21864.6
534.011	22164.3
532.775	22070.7
531.54	22299.6
530.305	22669.5
529.068	22811.6
527.833	23046.3
526.596	24078.3
525.359	25530.6
524.122	28592.6
522.885	35921.5
521.647	48506.5
520.409	61230.8
519.171	63202.3
517.933	51343.7
516.694	37522.3
515.455	29360.5
514.216	25679
512.977	24060.2
511.736	23199.3
510.497	22479.4
509.257	22623
508.016	21877.4
506.774	21997
505.534	21960
504.292	21696.4
503.051	21573.4
501.809	21556.6
500.566	21497.7
499.324	21456.9
498.081	21580.4
496.838	21549.6
495.595	21416.7
494.352	21558.1
493.107	21385.2
491.863	21322.4
490.619	21579.9
489.374	21729.1
488.129	21578.3
486.884	21817.5
485.639	21448.9
484.393	21396.2
483.146	21493.4
481.9	21530.6
480.653	21617.7
479.406	21499.1
478.159	21404.5
476.912	21471.6
475.664	21221.4
474.416	21432.2
473.168	21287.9
471.919	21189.4
470.67	21370.2
469.421	21335.6
468.172	21255.1
466.922	21535.3
465.672	21209.9
464.422	21382.4
463.172	21240.3
461.921	21267.5
460.67	21412
459.418	21303.8
458.167	21418.5
456.915	21387.9
455.663	21536.3
454.41	21189.6
453.157	21322
451.904	21551.8
450.651	21467.6
449.397	21494.6
448.145	21583.2
446.89	21366
445.636	21468.4
444.381	21499.4
443.126	21456.9
441.871	21424.4
440.615	21304.6
439.359	21833.3
438.104	21527.2
436.848	21615.5
435.591	21781.2
434.334	22000.2
433.076	21949.8
431.819	21691.5
430.562	21920.3
429.304	21838.2
428.045	22247
426.787	21842.4
425.528	21976
424.269	21937.5
423.01	22082.9
421.75	21991
420.49	21992.1
419.229	22086
417.969	21913.2
416.708	21936
415.447	22314.2
414.186	22080.2
412.924	22229.3
411.662	22062.6
410.4	21957.1
409.138	22224.4
407.875	22166.2
406.612	21861.6
405.349	22008.5
404.085	22181
402.821	22280.5
401.557	22242.1
400.293	22050