File: Finalized Code/Tuned Standard Models/RAMAN Data MITACs/TULSI/PMMA on Si substrate/Si-hydrophobic-with PMMA-4.txt
#Wave		#Intensity
1800.53	31107
1799.56	31250.8
1798.59	31491.1
1797.62	31261.4
1796.65	31483.7
1795.68	31387.5
1794.71	31296.6
1793.74	31287.8
1792.77	31043
1791.8	31082.9
1790.83	31169
1789.86	30424.5
1788.89	30951.5
1787.92	30901.7
1786.94	31046.7
1785.97	30810
1785	30616.8
1784.03	30393.1
1783.05	30863.2
1782.08	30874.9
1781.11	30554
1780.13	30959.8
1779.16	30503.4
1778.19	30425.7
1777.21	30925.8
1776.24	30543.9
1775.27	30330.7
1774.29	30644.1
1773.32	30775.9
1772.34	30496.4
1771.37	30441.8
1770.39	30966.8
1769.42	30462.8
1768.44	30867.6
1767.46	31182.9
1766.49	30911.4
1765.51	30693.4
1764.54	30455.2
1763.56	30686.2
1762.58	30659.7
1761.61	30839.6
1760.63	30481.8
1759.65	30636.2
1758.67	30726.8
1757.7	30213.9
1756.72	30633
1755.74	30413.1
1754.76	30587.7
1753.78	30306.7
1752.8	30501.6
1751.83	30574.4
1750.85	30425.8
1749.87	30686.7
1748.89	30472.1
1747.91	30966.6
1746.93	30330.2
1745.95	30344.5
1744.97	30579.7
1743.99	30873.2
1743.01	30354.1
1742.03	30937
1741.04	30395.3
1740.06	30599.8
1739.08	30596.2
1738.1	30364.3
1737.12	30507.8
1736.14	30790.7
1735.15	30812.4
1734.17	30258.8
1733.19	30523.8
1732.21	30198.5
1731.22	30620.5
1730.24	30609.3
1729.26	30289.2
1728.27	30336.2
1727.29	30588.3
1726.3	30417.7
1725.32	30500.1
1724.34	30294.2
1723.35	30280.5
1722.37	30206.1
1721.38	30953.4
1720.4	30532.7
1719.41	30536.6
1718.42	30434.5
1717.44	30529.4
1716.45	30296
1715.47	30385.8
1714.48	30215.6
1713.49	30401.4
1712.51	30312
1711.52	30300.8
1710.53	30489
1709.54	30477.8
1708.56	30512
1707.57	30619.3
1706.58	30766.8
1705.59	30465.8
1704.61	30714.2
1703.62	30733.2
1702.63	30354.3
1701.64	30519.4
1700.65	30231.3
1699.66	30597.7
1698.67	30732.4
1697.68	30645.7
1696.69	30679.8
1695.7	30545.4
1694.71	30446.2
1693.72	30580.8
1692.73	30486.7
1691.74	30375
1690.75	30690.5
1689.75	31344.8
1688.76	30640.4
1687.77	30724.6
1686.78	30861.5
1685.79	30551.6
1684.79	30743.7
1683.8	30624.6
1682.81	30743.8
1681.82	30850.5
1680.82	31358.2
1679.83	31236.6
1678.84	31175.1
1677.84	31113.7
1676.85	31182.6
1675.85	31048.6
1674.86	31155
1673.87	31203.8
1672.87	31325.1
1671.88	31721.7
1670.88	31690.3
1669.89	31711.4
1668.89	31479.9
1667.89	31681.1
1666.9	31997.2
1665.9	31983.3
1664.91	32144.2
1663.91	32165.2
1662.91	32408.5
1661.92	32676.7
1660.92	32420.4
1659.92	32229.1
1658.92	32419.8
1657.92	32632.8
1656.93	32633.7
1655.93	33308.1
1654.93	33047
1653.93	33389.4
1652.93	33265.5
1651.93	33500.5
1650.93	33281.9
1649.93	33711.2
1648.94	33853.8
1647.94	33919.2
1646.94	34612
1645.94	34154.4
1644.93	34797.1
1643.93	34852.3
1642.93	35029.4
1641.93	35905.3
1640.93	35758.8
1639.93	35547.6
1638.93	36194.2
1637.93	36636.8
1636.92	36604.5
1635.92	37061.7
1634.92	37394.5
1633.92	37458.9
1632.91	37766.6
1631.91	38545.9
1630.91	38629.9
1629.9	39426.1
1628.9	39604.1
1627.9	40236.1
1626.89	40540.4
1625.89	40869.3
1624.88	41500.6
1623.88	42054.8
1622.87	42593.9
1621.87	43283.8
1620.86	44463.9
1619.86	44603.5
1618.85	44802.4
1617.85	45870.1
1616.84	46056.3
1615.83	47890.4
1614.83	48068.7
1613.82	48758.9
1612.81	49973
1611.81	51026
1610.8	52043.9
1609.79	52441.1
1608.78	53665.9
1607.78	54877.8
1606.77	55338.4
1605.76	57250.8
1604.75	58251.4
1603.74	58614.7
1602.73	59631.9
1601.72	60638.8
1600.71	61739
1599.7	62441.7
1598.69	63625
1597.68	64482.3
1596.67	65036.1
1595.66	65289.1
1594.65	65872
1593.64	67196.2
1592.63	66980.6
1591.62	67218.2
1590.61	68026.8
1589.6	68079.4
1588.58	68309.2
1587.57	68615.2
1586.56	69725.4
1585.55	70316.2
1584.54	70987.9
1583.52	71551.2
1582.51	71819.3
1581.5	73527.3
1580.48	74554
1579.47	75184.9
1578.46	76007
1577.44	77108.7
1576.43	77515.2
1575.41	79023.6
1574.4	80043
1573.38	80750.5
1572.37	81646.5
1571.35	82770.2
1570.34	83739
1569.32	84673.1
1568.3	85381.3
1567.29	86172.5
1566.27	86872.8
1565.25	86923.7
1564.24	88566.3
1563.22	87892.1
1562.2	88706.5
1561.19	89359
1560.17	90062.6
1559.15	90381.9
1558.13	90992.1
1557.12	91174.1
1556.1	91038.2
1555.08	91677.1
1554.06	91844.2
1553.04	92881
1552.02	92454.1
1551	92669.8
1549.98	93280.9
1548.96	93191.1
1547.94	93426
1546.92	93450.8
1545.9	93448.9
1544.88	93903.1
1543.86	94879
1542.84	95096.2
1541.82	95520.5
1540.79	95961.7
1539.77	95476.7
1538.75	96032.2
1537.73	95954.1
1536.71	97349.5
1535.68	97300.4
1534.66	97733.4
1533.64	98660.2
1532.61	98523.3
1531.59	98950.9
1530.57	99478
1529.54	100304
1528.52	99916.4
1527.49	99832.8
1526.47	99980.1
1525.45	100395
1524.42	101346
1523.4	101821
1522.37	102111
1521.34	103088
1520.32	102715
1519.29	103444
1518.27	103246
1517.24	103215
1516.21	104164
1515.19	103655
1514.16	103314
1513.13	103780
1512.1	103722
1511.08	103539
1510.05	102544
1509.02	103744
1507.99	103676
1506.96	102854
1505.94	103537
1504.91	103618
1503.88	103495
1502.85	102961
1501.82	103583
1500.79	103548
1499.76	103072
1498.73	103191
1497.7	102781
1496.67	103569
1495.64	103212
1494.61	102628
1493.58	102296
1492.54	102178
1491.51	101523
1490.48	101533
1489.45	100405
1488.42	101241
1487.38	100523
1486.35	99781.7
1485.32	100002
1484.28	99769.8
1483.25	99537.3
1482.22	98589.4
1481.18	98048.9
1480.15	96937.9
1479.12	96328.2
1478.08	96178.5
1477.05	95932.6
1476.01	94955.2
1474.98	95193.2
1473.94	93672.8
1472.91	93300.2
1471.87	92403.5
1470.83	91115.4
1469.8	90087.4
1468.76	89331.2
1467.73	88705.2
1466.69	87841.6
1465.65	87216
1464.61	86487.5
1463.58	85569.7
1462.54	85194.6
1461.5	83831.1
1460.46	83291
1459.42	82969.3
1458.39	81729.4
1457.35	81645.5
1456.31	80519
1455.27	79704.5
1454.23	78715.4
1453.19	78134
1452.15	77327.6
1451.11	76636.6
1450.07	75806.9
1449.03	75085.3
1447.99	74000.2
1446.95	73367.8
1445.91	72417.5
1444.87	71977
1443.83	71407.5
1442.78	70857.4
1441.74	70082.8
1440.7	69411.3
1439.66	68517.9
1438.62	68807.2
1437.57	68831.2
1436.53	67769
1435.49	67778.9
1434.44	67161.2
1433.4	67013.8
1432.36	66353.5
1431.31	67200.9
1430.27	66087.8
1429.22	65537.8
1428.18	64923.7
1427.13	65417.9
1426.09	64761.1
1425.04	64824.1
1424	63822.3
1422.95	63797.3
1421.91	62898.6
1420.86	62452.5
1419.81	62865.6
1418.77	62350.6
1417.72	62240.3
1416.67	61668.6
1415.63	61342
1414.58	61272.4
1413.53	60342.3
1412.48	59493.5
1411.44	59607.2
1410.39	59400.1
1409.34	58801.3
1408.29	57986.7
1407.24	58328.4
1406.19	58333.1
1405.14	57856
1404.09	57383.8
1403.04	57094.5
1401.99	56665.4
1400.94	55842.9
1399.89	56331.5
1398.84	56168.2
1397.79	55666.2
1396.74	55368.1
1395.69	55318.8
1394.64	55582
1393.58	55153.9
1392.53	55464.4
1391.48	54965.5
1390.43	54708.1
1389.38	54441.4
1388.32	54210.2
1387.27	54537.1
1386.22	54079.1
1385.16	54765.2
1384.11	54699.5
1383.05	54137.8
1382	53916.4
1380.95	54056.4
1379.89	54028.7
1378.84	53984.5
1377.78	53801.1
1376.73	53823
1375.67	53880.3
1374.62	54192.3
1373.56	53285
1372.5	53160.8
1371.45	53600.1
1370.39	53501.8
1369.33	53219.8
1368.28	53385.5
1367.22	53499.3
1366.16	53288.1
1365.1	53001.6
1364.05	53341.4
1362.99	53106.8
1361.93	53309.9
1360.87	53557.7
1359.81	53617.1
1358.75	54156.3
1357.69	54027.5
1356.63	54211.4
1355.58	54679.6
1354.52	54372.3
1353.46	54485.5
1352.4	54561.1
1351.33	55035.9
1350.27	54740.5
1349.21	54628.2
1348.15	54818.7
1347.09	54779.2
1346.03	54512.2
1344.97	54765.9
1343.91	54665.5
1342.84	54914.4
1341.78	55024.9
1340.72	55308.7
1339.66	55850.1
1338.59	55241.3
1337.53	55700.5
1336.46	55597.7
1335.4	56250.9
1334.34	56213.5
1333.27	56176.2
1332.21	56333
1331.14	56772.7
1330.08	56912.9
1329.01	57263.4
1327.95	57380.1
1326.88	57167.3
1325.82	58274.5
1324.75	56968.4
1323.68	57664.2
1322.62	57680.3
1321.55	57614.6
1320.48	57549
1319.42	57660.7
1318.35	57830.7
1317.28	57520.2
1316.21	57466.3
1315.15	57792.4
1314.08	57549.7
1313.01	58094.7
1311.94	57770.4
1310.87	58217.4
1309.8	57963.1
1308.73	58388.8
1307.67	58621.1
1306.59	58757.9
1305.53	59378.7
1304.46	59540.9
1303.38	60298.5
1302.31	60776.7
1301.24	60905.9
1300.17	60879.3
1299.1	61533.7
1298.03	61356
1296.96	61777.7
1295.88	62031.9
1294.81	61886.7
1293.74	62714.3
1292.67	62401.8
1291.59	62713.8
1290.52	62371.3
1289.45	62975.4
1288.38	63528.2
1287.3	63658.8
1286.23	64125.5
1285.15	64603.6
1284.08	64699.1
1283	65111.9
1281.93	65594.1
1280.85	65585.1
1279.78	65833.1
1278.7	66067.1
1277.63	66113.6
1276.55	65914.7
1275.47	65977.3
1274.4	65952
1273.32	65603
1272.25	65439
1271.17	65353.8
1270.09	64958.8
1269.01	64876
1267.93	64063.1
1266.86	63671
1265.78	63886.3
1264.7	63067.3
1263.62	63116.5
1262.54	63156.4
1261.46	62926.4
1260.38	62431.1
1259.3	62146
1258.22	62218.3
1257.14	61509.1
1256.06	60927
1254.98	61700.1
1253.9	61141.2
1252.82	60780.6
1251.74	60678.1
1250.66	60960.2
1249.58	60521.6
1248.5	60898
1247.41	61734.4
1246.33	61335
1245.25	61181.9
1244.17	61249.7
1243.08	61057.5
1242	61072.4
1240.92	61179.2
1239.83	60817.1
1238.75	60664.3
1237.67	60617.2
1236.58	60907.7
1235.5	60667.7
1234.41	60572.4
1233.33	60534.5
1232.24	60264.9
1231.16	59965.6
1230.07	59425.6
1228.98	59486.5
1227.9	58923.9
1226.81	58941.4
1225.72	58917.6
1224.64	58889.3
1223.55	59057.9
1222.46	59302.1
1221.38	59241.6
1220.29	60094.6
1219.2	60091.2
1218.11	60412.7
1217.02	60805
1215.93	61009.6
1214.85	61280.4
1213.76	61459.6
1212.67	61444.5
1211.58	61918.4
1210.49	61987.7
1209.4	62232.9
1208.31	62804.5
1207.22	63316.6
1206.13	63789.6
1205.04	64045.6
1203.94	64545.6
1202.85	64965.6
1201.76	65522.3
1200.67	66204.1
1199.58	66564.2
1198.49	67298
1197.39	67678.2
1196.3	68308.9
1195.21	69586.3
1194.11	70218.6
1193.02	71497.3
1191.93	72288.3
1190.83	73165.5
1189.74	73714.6
1188.64	74980.1
1187.55	76149.6
1186.46	76879.6
1185.36	77927.7
1184.26	78388.8
1183.17	79629.3
1182.07	80769.3
1180.98	81986
1179.88	83025.1
1178.79	84175
1177.69	85601.4
1176.59	86509.6
1175.49	88357.1
1174.4	89409.6
1173.3	90014.7
1172.2	91479.2
1171.1	91947.6
1170	93107.2
1168.91	93280.4
1167.81	94094.8
1166.71	94235.9
1165.61	95366.9
1164.51	95254.1
1163.41	95748.1
1162.31	96006.5
1161.21	96169.7
1160.11	97131.6
1159.01	96851
1157.91	97473.1
1156.81	97267.2
1155.71	98191.9
1154.61	96970.9
1153.5	96970.9
1152.4	96006
1151.3	96896.3
1150.2	95916
1149.09	95825.8
1147.99	95896
1146.89	95131
1145.79	95226.1
1144.68	94387.1
1143.58	93999.5
1142.47	93294.1
1141.37	92474.1
1140.26	91566.4
1139.16	90354.8
1138.05	89585.4
1136.95	88600.1
1135.84	87606.1
1134.74	86572.1
1133.63	86056.3
1132.53	84354.4
1131.42	82374.1
1130.31	81416.2
1129.21	79961.6
1128.1	78338.8
1126.99	77427.4
1125.88	75745.1
1124.78	74466
1123.67	73050.2
1122.56	71565.4
1121.45	70568.7
1120.34	69682.5
1119.23	67983.8
1118.12	66797.6
1117.02	65724.1
1115.91	64875.6
1114.8	63439.5
1113.69	63271.4
1112.58	62168.2
1111.47	61345.7
1110.35	60624.4
1109.24	60492.9
1108.13	60056.6
1107.02	59878.2
1105.91	59036.9
1104.8	58807.2
1103.68	58018
1102.57	57070.1
1101.46	57029
1100.35	55880.4
1099.23	55173
1098.12	54239.9
1097.01	53410.1
1095.89	52632.1
1094.78	52004.1
1093.66	51177.6
1092.55	50188.2
1091.44	49599.2
1090.32	49215.8
1089.21	48805.7
1088.09	48212.8
1086.97	47734
1085.86	47420.5
1084.74	47310.1
1083.62	47077.1
1082.51	46436.1
1081.39	46687.1
1080.27	45848.1
1079.16	46072.4
1078.04	46085
1076.92	45830.2
1075.8	45653.5
1074.68	45574.8
1073.57	44599.1
1072.45	44405
1071.33	44130.8
1070.21	43645.4
1069.09	43569.4
1067.97	42942
1066.85	42795.1
1065.73	42519.3
1064.61	42090.3
1063.49	41788.2
1062.37	41777.1
1061.25	41692.8
1060.12	41100
1059	40645.1
1057.88	40510
1056.76	39900.1
1055.64	40109
1054.51	39674.7
1053.39	39768.3
1052.27	39021.6
1051.15	39133
1050.02	38579.5
1048.9	38881.6
1047.77	38417
1046.65	38287.1
1045.53	38369.7
1044.4	37805.9
1043.28	38087.9
1042.15	38137.4
1041.02	37620.4
1039.9	37700.9
1038.77	37836.7
1037.65	37640.8
1036.52	38004.2
1035.39	38075.7
1034.27	38279.7
1033.14	37763.5
1032.01	37896.9
1030.88	37809.3
1029.76	38081.7
1028.63	38199.4
1027.5	38041.3
1026.37	37766.2
1025.24	37864.1
1024.11	37717.2
1022.99	37768.7
1021.86	37765.1
1020.73	37944.4
1019.6	37674.2
1018.47	37397.4
1017.33	37700
1016.2	37863.8
1015.07	37472.7
1013.94	37625.4
1012.81	37595.4
1011.68	37745.9
1010.55	37900.6
1009.42	37813.4
1008.28	38337.5
1007.15	37595.1
1006.02	38182.8
1004.88	38418.6
1003.75	38507.1
1002.62	39502.7
1001.48	40721.9
1000.35	41066.8
999.215	41659.5
998.08	41760.4
996.945	41334.6
995.811	41078
994.675	40917.9
993.54	41615.3
992.404	41455.2
991.268	41634.9
990.132	42141
988.995	42526.4
987.858	43233.7
986.722	43288
985.584	43701.4
984.446	43812.5
983.309	44398.5
982.171	44351.8
981.033	44648.7
979.895	44746.3
978.756	44749.9
977.617	44725.1
976.478	44626
975.338	45392.3
974.198	45089.8
973.059	45857.9
971.919	45996.7
970.778	45975.9
969.638	46062.2
968.497	45866.9
967.355	45542.9
966.215	45251.8
965.073	45174.5
963.931	45498.5
962.789	45096.4
961.646	45479.2
960.504	45530.5
959.361	45431.5
958.218	45587.3
957.075	46296.3
955.932	46467.2
954.788	46368
953.644	46638.9
952.499	46992.4
951.354	47582.8
950.21	47587.9
949.065	47316.8
947.92	47745.9
946.774	47929.2
945.629	47564.7
944.482	47937
943.337	47952.8
942.19	48133.7
941.043	47478.6
939.896	47989.5
938.749	47747
937.602	47300.6
936.454	46772
935.306	46699.1
934.158	46511.3
933.01	45848.7
931.861	45357.7
930.712	44342.4
929.562	43845.4
928.413	43452.6
927.264	42200.1
926.114	41376.9
924.964	40445.8
923.813	40067
922.663	39686.2
921.512	39409.5
920.36	39048.5
919.209	39185
918.058	38298.8
916.906	37812.9
915.754	37545.4
914.602	37431.5
913.449	36987.1
912.296	36754.6
911.143	36394.8
909.989	36270.4
908.836	36055.4
907.683	36276.5
906.528	35610.6
905.374	36032.3
904.219	36302.8
903.064	36213.1
901.909	36386.4
900.754	36380.8
899.599	36269.6
898.442	36490.2
897.286	36829.1
896.13	36298
894.974	36316
893.817	36103.8
892.66	36298.3
891.503	35948.4
890.345	35874.1
889.188	36100.8
888.029	35891
886.871	35836
885.712	35647.8
884.554	36016.2
883.395	35477.8
882.235	35633.4
881.076	35681.6
879.916	35678.3
878.756	35417.3
877.596	35276.7
876.436	35159.7
875.274	35308.8
874.113	35269
872.952	35242.2
871.791	35131.7
870.629	35578.5
869.467	35645.9
868.305	35623.3
867.142	35900.5
865.979	35730.1
864.816	36028.5
863.653	35950.2
862.489	35679.2
861.326	35459.8
860.162	35813.7
858.997	35442.4
857.833	35821.8
856.668	35912.4
855.503	36118.5
854.338	36290.2
853.172	36308.1
852.007	36526.7
850.841	36563.7
849.674	36654
848.508	36825.4
847.341	36610.5
846.174	36696.5
845.007	37081.2
843.839	36691.4
842.672	36331.7
841.504	36814.2
840.335	36228.7
839.167	36150.6
837.998	36040.6
836.829	36475.9
835.659	36646.9
834.49	36660.3
833.32	36833.4
832.15	36140.2
830.979	36789.9
829.81	36252.3
828.639	36382.7
827.468	36347.2
826.296	35986.5
825.125	35917.1
823.953	35741.5
822.781	35325.9
821.608	35091.1
820.436	34790.5
819.264	34557.9
818.09	34130.2
816.917	33889.4
815.743	33322
814.569	33083.6
813.396	32635.3
812.221	32318.7
811.047	32203.6
809.872	31694.4
808.696	31460.8
807.521	31079.1
806.346	30786.4
805.17	30432.5
803.994	30523.3
802.817	30332.6
801.641	30480.5
800.464	29970.4
799.287	29858.2
798.109	29688.9
796.932	29462.6
795.754	29602.1
794.576	29570.3
793.397	29166.7
792.219	29187.9
791.04	29449.8
789.86	29050.7
788.682	29340
787.502	29021.3
786.322	28755.4
785.142	28373.7
783.961	28213.6
782.78	27994.5
781.6	27634.2
780.419	27465.9
779.237	27291.4
778.056	27270.7
776.873	27096.3
775.691	27269.5
774.509	27006.7
773.326	26956.6
772.143	26409.8
770.96	27128.1
769.776	27179
768.593	27164.7
767.408	27007.4
766.225	27235
765.04	27239.6
763.855	26981.5
762.67	27305.6
761.484	27192.5
760.299	26739.3
759.113	26666.3
757.928	26536.7
756.741	26566.6
755.555	26355.2
754.368	26353.7
753.181	26633.3
751.993	26566.7
750.806	26342.9
749.618	26016.5
748.43	26337.8
747.241	26462
746.053	26318
744.864	26195
743.675	26084.6
742.485	26196.2
741.296	25897.5
740.106	26189.1
738.916	26457.5
737.726	26175.6
736.535	26253.6
735.344	26356.6
734.152	26461.7
732.961	26395.4
731.77	26594.4
730.577	26532.3
729.386	26317.7
728.192	25975.8
727	26041.1
725.807	25962.4
724.614	26021.5
723.42	25965.8
722.227	26116.6
721.032	25900.3
719.838	25896.8
718.644	25972.4
717.449	26046
716.254	26046.6
715.059	26024.3
713.863	26201.9
712.667	26314.9
711.471	26425.8
710.274	26386.7
709.078	26464.2
707.881	26117.3
706.684	26556.8
705.486	26382.5
704.289	26730.3
703.091	26416.8
701.893	26689.6
700.694	26935.2
699.495	27016.5
698.297	27255.7
697.098	27332.9
695.897	27814.8
694.698	27871
693.498	28327.6
692.298	28626.4
691.098	28589.1
689.896	29088.9
688.695	29285.7
687.494	29132.2
686.293	28645.1
685.091	28792.2
683.889	29053.1
682.687	29048.9
681.483	28984.6
680.28	28502.2
679.077	28233.1
677.874	28537.4
676.671	28582.9
675.467	28522.9
674.263	28541.5
673.058	28756.5
671.854	28762.6
670.648	28754.3
669.443	28903
668.237	29078.4
667.031	29109.3
665.825	29133.9
664.619	29206
663.413	28832.3
662.206	28564
660.999	28357.7
659.792	28584.5
658.584	28252.5
657.376	28254.6
656.168	28056.8
654.96	27830.2
653.751	27962.2
652.542	27605.9
651.333	27672
650.123	27330.4
648.914	27390.3
647.704	27429.6
646.493	27501.8
645.283	27555.4
644.072	27479.5
642.861	27471.4
641.649	27290.7
640.438	27330
639.227	27461.7
638.015	27246.1
636.802	26823.3
635.589	27334.9
634.376	27213.9
633.163	27433.8
631.95	26886
630.736	26582.7
629.522	26628.2
628.308	26347.6
627.094	26333.6
625.879	26370.9
624.664	26234
623.448	26640.1
622.233	26570.8
621.018	26841.4
619.801	27202.1
618.585	27016
617.368	27024.4
616.151	26687
614.935	26738.5
613.717	26417.6
612.499	26268.7
611.281	25984.9
610.062	26054.9
608.845	26341.4
607.626	25922.9
606.407	26362.6
605.188	26463
603.968	26314.3
602.748	26106.4
601.528	26678.3
600.308	26799
599.087	27321.5
597.866	27307.3
596.646	27503.2
595.424	27411.6
594.202	27356.7
592.98	26882
591.758	26678.5
590.535	26141
589.312	25512.2
588.09	25060.7
586.866	25061.3
585.643	25226.8
584.419	24899.8
583.195	25048.9
581.971	24850.2
580.746	24747.2
579.521	24569
578.296	24683.5
577.07	24773.6
575.845	24955
574.619	25114.1
573.393	25246.7
572.166	25062.5
570.939	25140.2
569.713	24885.1
568.485	24745.7
567.258	24839.7
566.029	24674
564.802	24859.2
563.573	24310.5
562.345	24738.9
561.115	24543
559.887	24770.5
558.657	25014.2
557.428	25438
556.197	25296.8
554.967	25835.7
553.736	25896.8
552.506	26328.1
551.274	26484.1
550.043	26890.8
548.812	26870.7
547.58	27352
546.348	27164.1
545.115	27376.3
543.883	27491.5
542.649	27853
541.416	27873.1
540.183	27620.7
538.949	27749.9
537.715	28254.3
536.48	28470
535.246	28619
534.011	29266
532.775	29680.9
531.54	30383.8
530.305	31602.3
529.068	33434.7
527.833	35747.7
526.596	39900.2
525.359	47648.7
524.122	63304.2
522.885	98302.2
521.647	164074
520.409	239872
519.171	0.000000
517.933	194372
516.694	115038
515.455	70886
514.216	51671.4
512.977	42897.4
511.736	38332.8
510.497	35360.6
509.257	33096.3
508.016	32113.6
506.774	30992.8
505.534	30007
504.292	29153.9
503.051	28421.6
501.809	28124.6
500.566	27434.9
499.324	27404.8
498.081	27436.8
496.838	27072.2
495.595	27404.7
494.352	27843.1
493.107	28139.3
491.863	28363.2
490.619	28559
489.374	28492.7
488.129	27906.4
486.884	27394.4
485.639	26982.5
484.393	27108.5
483.146	27234.4
481.9	27234.4
480.653	27563.9
479.406	27248.3
478.159	27336.1
476.912	27248.2
475.664	27254.2
474.416	27064.6
473.168	26980.9
471.919	26372.6
470.67	26388.7
469.421	26054
468.172	26072.1
466.922	26223.8
465.672	26389.3
464.422	26397.4
463.172	26136.7
461.921	26511.2
460.67	26107.2
459.418	26133.3
458.167	26151.4
456.915	26117.8
455.663	26318.8
454.41	26368.7
453.157	26289.3
451.904	26190.1
450.651	26287.6
449.397	26319.5
448.145	26317.7
446.89	26194.7
445.636	26200.8
444.381	26304.2
443.126	26508.7
441.871	26560.3
440.615	26669.5
439.359	26762.7
438.104	26360.3
436.848	26990.7
435.591	26768.7
434.334	26750.9
433.076	27125.3
431.819	27150.9
430.562	27289.5
429.304	27455.6
428.045	27592
426.787	27857
425.528	28127.7
424.269	28214.4
423.01	28237.8
421.75	27828.3
420.49	27924.9
419.229	27989.8
417.969	27979.7
416.708	27789.8
415.447	27653.3
414.186	27935.4
412.924	27583.8
411.662	27650.7
410.4	27849.8
409.138	27654.2
407.875	27756.5
406.612	27657.7
405.349	27972.9
404.085	28240.6
402.821	28370.2
401.557	28283.2
400.293	28290.7