File: Finalized Code/Tuned Standard Models/RAMAN Data MITACs/TULSI/PMMA on Si substrate/Si-hydrophilic-blank with PMMA-2.txt
#Wave		#Intensity
1800.53	9553
1799.56	9558.14
1798.59	9420.11
1797.62	9654.46
1796.65	9370.14
1795.68	9560.76
1794.71	9363.83
1793.74	9318.34
1792.77	9275.43
1791.8	9224.85
1790.83	9379.42
1789.86	9287.82
1788.89	9219.32
1787.92	9330.23
1786.94	8974.8
1785.97	9331.62
1785	9124.87
1784.03	8977.1
1783.05	9087.94
1782.08	9170.58
1781.11	9071.51
1780.13	9125.98
1779.16	8916.96
1778.19	9066.06
1777.21	9125.61
1776.24	8834.92
1775.27	9055.51
1774.29	9007.7
1773.32	8888.37
1772.34	8843.17
1771.37	8792.87
1770.39	8770.69
1769.42	8817.43
1768.44	8754.41
1767.46	8752.66
1766.49	8671.81
1765.51	8797.62
1764.54	8660.69
1763.56	8666.6
1762.58	8361.51
1761.61	8556.08
1760.63	8714.91
1759.65	8695.32
1758.67	8635
1757.7	8615.44
1756.72	8702.83
1755.74	8342.14
1754.76	8335.38
1753.78	8282.82
1752.8	8428.71
1751.83	8325.28
1750.85	8239.69
1749.87	8441.44
1748.89	8467.71
1747.91	8303.35
1746.93	8431.28
1745.95	8239.05
1744.97	8537.12
1743.99	8032.58
1743.01	8193.46
1742.03	8448.21
1741.04	8106.42
1740.06	8234.2
1739.08	8085.4
1738.1	8131.97
1737.12	8203.89
1736.14	8001.94
1735.15	7911.61
1734.17	7877.07
1733.19	7748.79
1732.21	7992.98
1731.22	7887.52
1730.24	7845.42
1729.26	7871.69
1728.27	7892.89
1727.29	7896.37
1726.3	7760.67
1725.32	7822.36
1724.34	7676.61
1723.35	7725.65
1722.37	7842.93
1721.38	7803.43
1720.4	7637.59
1719.41	7492.02
1718.42	7743.15
1717.44	7605.2
1716.45	7689.53
1715.47	7400.15
1714.48	7630.9
1713.49	7457.75
1712.51	7304.85
1711.52	7611.16
1710.53	7460.81
1709.54	7464.36
1708.56	7498.15
1707.57	7345.4
1706.58	7326.28
1705.59	7395.36
1704.61	7225.08
1703.62	7319.34
1702.63	7358.15
1701.64	7341.57
1700.65	7508.74
1699.66	7248.01
1698.67	7216.36
1697.68	7177.17
1696.69	7137.99
1695.7	7184.33
1694.71	7208.03
1693.72	7221.66
1692.73	7200.1
1691.74	6934.82
1690.75	7091.69
1689.75	7067.65
1688.76	7106.41
1687.77	7130.08
1686.78	7161.28
1685.79	7099.6
1684.79	7037.95
1683.8	7023.99
1682.81	6987.46
1681.82	6950.95
1680.82	6982.14
1679.83	7020.83
1678.84	6959.27
1677.84	6744.9
1676.85	6851.25
1675.85	6797.28
1674.86	6898.57
1673.87	6967.28
1672.87	6728.08
1671.88	6684.18
1670.88	6657.81
1669.89	6794.05
1668.89	6765.17
1667.89	6758.8
1666.9	6657.44
1665.9	6686.09
1664.91	6654.75
1663.91	6680.89
1662.91	6589.62
1661.92	6440.94
1660.92	6576.97
1659.92	6675.5
1658.92	6576.81
1657.92	6540.54
1656.93	6556.68
1655.93	6463.06
1654.93	6469.24
1653.93	6480.4
1652.93	6496.54
1651.93	6507.69
1650.93	6336.92
1649.93	6288.31
1648.94	6369.24
1647.94	6328.1
1646.94	6247.15
1645.94	6285.71
1644.93	6234.66
1643.93	6417.54
1642.93	6403.81
1641.93	6250.78
1640.93	6212.21
1639.93	6148.8
1638.93	6204.73
1637.93	6223.35
1636.92	6214.64
1635.92	6253.13
1634.92	6304.03
1633.92	6116.5
1632.91	6070.57
1631.91	6146.29
1630.91	6152.5
1629.9	6123.96
1628.9	6187.22
1627.9	6081.79
1626.89	6073.12
1625.89	5975.2
1624.88	6092.97
1623.88	6074.39
1622.87	5966.61
1621.87	5982.74
1620.86	5884.93
1619.86	5975.37
1618.85	5872.65
1617.85	5898.68
1616.84	5766.32
1615.83	5752.78
1614.83	5840.67
1613.82	5740.56
1612.81	5764.12
1611.81	5753.06
1610.8	5791.45
1609.79	5622.22
1608.78	5722.39
1607.78	5896.62
1606.77	5776.87
1605.76	5783.11
1604.75	5799.21
1603.74	5746.2
1602.73	5624.12
1601.72	5672.32
1600.71	5698.3
1599.7	5748.94
1598.69	5538.18
1597.68	5677.58
1596.67	5683.82
1595.66	5537.27
1594.65	5605.14
1593.64	5677.9
1592.63	5526.51
1591.62	5439.21
1590.61	5443.03
1589.6	5444.38
1588.58	5576.16
1587.57	5496.3
1586.56	5426.31
1585.55	5489.15
1584.54	5414.27
1583.52	5467.25
1582.51	5453.85
1581.5	5428.17
1580.48	5459.01
1579.47	5499.65
1578.46	5417.49
1577.44	5237.16
1576.43	5322.01
1575.41	5463.28
1574.4	5285.49
1573.38	5115.14
1572.37	5423.15
1571.35	5323.96
1570.34	5261.58
1569.32	5294.83
1568.3	5200.62
1567.29	5224.06
1566.27	5215.65
1565.25	5241.53
1564.24	5171.9
1563.22	5141.47
1562.2	5130.63
1561.19	5065.95
1560.17	5067.37
1559.15	5032.09
1558.13	5013.94
1557.12	4978.69
1556.1	5170.82
1555.08	5277.31
1554.06	5026.97
1553.04	5001.51
1552.02	4949.19
1551	4923.76
1549.98	5079.04
1548.96	4960.82
1547.94	4918.31
1546.92	4953.91
1545.9	4908.99
1544.88	4886.03
1543.86	4802.12
1542.84	4905.99
1541.82	4758.71
1540.79	4894.24
1539.77	4941.98
1538.75	4841.08
1537.73	4866.89
1536.71	4839.1
1535.68	4716.37
1534.66	4856.6
1533.64	4918.9
1532.61	4771.89
1531.59	4676.03
1530.57	4728.59
1529.54	4771.4
1528.52	4605.09
1527.49	4669.79
1526.47	4763.62
1525.45	4611.99
1524.42	4734.95
1523.4	4580.96
1522.37	4711.16
1521.34	4615.51
1520.32	4760.21
1519.29	4640.32
1518.27	4571.43
1517.24	4587.48
1516.21	4467.7
1515.19	4566.21
1514.16	4560.43
1513.13	4508.59
1512.1	4590.07
1511.08	4615.78
1510.05	4563.97
1509.02	4495.22
1507.99	4586.32
1506.96	4471.59
1505.94	4480.36
1504.91	4356.02
1503.88	4425.3
1502.85	4400.21
1501.82	4343.68
1500.79	4374.23
1499.76	4559.48
1498.73	4336.18
1497.7	4361.88
1496.67	4191.86
1495.64	4290.04
1494.61	4368.86
1493.58	4348.65
1492.54	4420.18
1491.51	4424.1
1490.48	4336.33
1489.45	4212.4
1488.42	4356.26
1487.38	4150.38
1486.35	4315.9
1485.32	4300.55
1484.28	4350.29
1483.25	4296.38
1482.22	4288.28
1481.18	4386.15
1480.15	4163.7
1479.12	4146
1478.08	4224.58
1477.05	4281.48
1476.01	4275.79
1474.98	4161.85
1473.94	4237.96
1472.91	4131.28
1471.87	4149.67
1470.83	4223.33
1469.8	4184.02
1468.76	4144.72
1467.73	4189.51
1466.69	4164.63
1465.65	4058.12
1464.61	4179.73
1463.58	4222.08
1462.54	4144.42
1461.5	4217.95
1460.46	4061.16
1459.42	4091.51
1458.39	4004.34
1457.35	4168.94
1456.31	4158.5
1455.27	4095.34
1454.23	4080.12
1453.19	4108.03
1452.15	4188.61
1451.11	4084.79
1450.07	4112.68
1449.03	4166.88
1447.99	4003.31
1446.95	4004.88
1445.91	4066.25
1444.87	4058.24
1443.83	4095.66
1442.78	4104.38
1441.74	4144.17
1440.7	3942.6
1439.66	3929.85
1438.62	4024.58
1437.57	4050.02
1436.53	3989.5
1435.49	3919.46
1434.44	3921.04
1433.4	3891.6
1432.36	3826.39
1431.31	4016.41
1430.27	3901.12
1429.22	3828.8
1428.18	3937.66
1427.13	3905.87
1426.09	3809.76
1425.04	3744.66
1424	3891.55
1422.95	3895.51
1421.91	3942.32
1420.86	3693.98
1419.81	3869.31
1418.77	3778.11
1417.72	3751.16
1416.67	3745.63
1415.63	3823.33
1414.58	3689.42
1413.53	3733.81
1412.48	3785.32
1411.44	3791.67
1410.39	3674.5
1409.34	3616.75
1408.29	3808.32
1407.24	3729.2
1406.19	3754.54
1405.14	3744.28
1404.09	3748.25
1403.04	3794.91
1401.99	3597.31
1400.94	3568.12
1399.89	3508.13
1398.84	3663.81
1397.79	3750.73
1396.74	3534.38
1395.69	3699.44
1394.64	3601.6
1393.58	3650.57
1392.53	3659.29
1391.48	3660.9
1390.43	3671.97
1389.38	3543.48
1388.32	3552.21
1387.27	3615.32
1386.22	3423.09
1385.16	3545.28
1384.11	3639.07
1383.05	3425.69
1382	3547.81
1380.95	3615.57
1379.89	3494.4
1378.84	3387.46
1377.78	3563.77
1376.73	3534.71
1375.67	3383
1374.62	3401.17
1373.56	3490.08
1372.5	3510.58
1371.45	3481.57
1370.39	3452.57
1369.33	3579.09
1368.28	3392.25
1367.22	3391.55
1366.16	3407.33
1365.1	3364.25
1364.05	3417.69
1362.99	3391.1
1361.93	3413.92
1360.87	3363.82
1359.81	3428.98
1358.75	3501.16
1357.69	3281.8
1356.63	3384.54
1355.58	3311
1354.52	3331.46
1353.46	3309.63
1352.4	3346.52
1351.33	3303.56
1350.27	3368.61
1349.21	3283.42
1348.15	3256.93
1347.09	3270.33
1346.03	3398.66
1344.97	3308.84
1343.91	3336.29
1342.84	3291.07
1341.78	3262.26
1340.72	3263.93
1339.66	3284.34
1338.59	3215.73
1337.53	3182.29
1336.46	3277.61
1335.4	3237.14
1334.34	3262.22
1333.27	3179.65
1332.21	3249.17
1331.14	3255.51
1330.08	3189.37
1329.01	3200.39
1327.95	3181.03
1326.88	3142.98
1325.82	3226.44
1324.75	3127.67
1323.68	3225.1
1322.62	3231.44
1321.55	3207.43
1320.48	3176.42
1319.42	3147.76
1318.35	3135.44
1317.28	3092.81
1316.21	3078.18
1315.15	3068.21
1314.08	3160.81
1313.01	3122.87
1311.94	3066.3
1310.87	3054.02
1309.8	3123.26
1308.73	3048.09
1307.67	3140.58
1306.59	3086.4
1305.53	3104.37
1304.46	3085.12
1303.38	3084.48
1302.31	4586.22
1301.24	33222.2
1300.17	6269.72
1299.1	3167.91
1298.03	3111.48
1296.96	2980.74
1295.88	3119.48
1294.81	2984.14
1293.74	2944.05
1292.67	3096.65
1291.59	3021.74
1290.52	3039.67
1289.45	3090.08
1288.38	3010.58
1287.3	2993.72
1286.23	2874.85
1285.15	3059.69
1284.08	3003.44
1283	2979.64
1281.93	2976.71
1280.85	2925.14
1279.78	2968.52
1278.7	2898.45
1277.63	2874.71
1276.55	2920.39
1275.47	2917.47
1274.4	2898.36
1273.32	2839.94
1272.25	2985.01
1271.17	2829.51
1270.09	2891.32
1269.01	2768.25
1267.93	2839.29
1266.86	2910.3
1265.78	2923.55
1264.7	2828.28
1263.62	2961.58
1262.54	2905.57
1261.46	2824.21
1260.38	2789.02
1259.3	2942.97
1258.22	2887.01
1257.14	2863.36
1256.06	2825.88
1254.98	2783.81
1253.9	2886.91
1252.82	2741.19
1251.74	2761.34
1250.66	2873.59
1249.58	2843.07
1248.5	2812.55
1247.41	2800.46
1246.33	2765.37
1245.25	2852.2
1244.17	2674.53
1243.08	2710.76
1242	2820.53
1240.92	2746.4
1239.83	2686.08
1238.75	2759.04
1237.67	2648.21
1236.58	2741.81
1235.5	2725.17
1234.41	2715.42
1233.33	2662.07
1232.24	2695.93
1231.16	2651.78
1230.07	2763.61
1228.98	2609.4
1227.9	2599.69
1226.81	2672.49
1225.72	2724.63
1224.64	2639.3
1223.55	2705.17
1222.46	2656.51
1221.38	2710.91
1220.29	2657.69
1219.2	2647.98
1218.11	2654.29
1217.02	2614.85
1215.93	2607.44
1214.85	2654.92
1213.76	2604.07
1212.67	2649.24
1211.58	2641.83
1210.49	2659.55
1209.4	2720.67
1208.31	2548.81
1207.22	2619.07
1206.13	2629.93
1205.04	2590.58
1203.94	2585.48
1202.85	2550.71
1201.76	2522.81
1200.67	2579.29
1199.58	2585.59
1198.49	2669.4
1197.39	2586.79
1196.3	2634.1
1195.21	2542.42
1194.11	2592
1193.02	2614.23
1191.93	2638.73
1190.83	2624.52
1189.74	2501.07
1188.64	2616.59
1187.55	2654.71
1186.46	2538.17
1185.36	2576.29
1184.26	2623.49
1183.17	2629.76
1182.07	2515.59
1180.98	2576.4
1179.88	2523.62
1178.79	2482.21
1177.69	2538.46
1176.59	2512.95
1175.49	2600.94
1174.4	2548.21
1173.3	2570.36
1172.2	2504.04
1171.1	2533
1170	2523.4
1168.91	2502.47
1167.81	2567.66
1166.71	2447.04
1165.61	2525.81
1164.51	2464.13
1163.41	2481.73
1162.31	2503.85
1161.21	2473.9
1160.11	2443.96
1159.01	2556.57
1157.91	2546.99
1156.81	2535.14
1155.71	2453.21
1154.61	2518.25
1153.5	2470.26
1152.4	2467.49
1151.3	2500.85
1150.2	2493.55
1149.09	2560.78
1147.99	2422.52
1146.89	2489.73
1145.79	2421.5
1144.68	2486.42
1143.58	2472.37
1142.47	2433.51
1141.37	2451.03
1140.26	2385.14
1139.16	2497.33
1138.05	2478.78
1136.95	2588.66
1135.84	2529.55
1134.74	2474.97
1133.63	2546.5
1132.53	2381.63
1131.42	2446.4
1130.31	2511.14
1129.21	2389.13
1128.1	2447.1
1126.99	2469.08
1125.88	2533.76
1124.78	2436.57
1123.67	2541.68
1122.56	2428.8
1121.45	2493.44
1120.34	2459.22
1119.23	2492.39
1118.12	2498.6
1117.02	2518.27
1115.91	2401.05
1114.8	2333.24
1113.69	2469.58
1112.58	2592.4
1111.47	2477.5
1110.35	2416.46
1109.24	2503.35
1108.13	2359.42
1107.02	2457.49
1105.91	2374.11
1104.8	2458.7
1103.68	2480.57
1102.57	2428.56
1101.46	2419.1
1100.35	2461.1
1099.23	2380.05
1098.12	2466.77
1097.01	2470.72
1095.89	2371.84
1094.78	2384.75
1093.66	2471.4
1092.55	2528.96
1091.44	2309.53
1090.32	2458.67
1089.21	2435.82
1088.09	2417.45
1086.97	2416.94
1085.86	2420.89
1084.74	2371.3
1083.62	2413.18
1082.51	2274.42
1081.39	2291.78
1080.27	2371.53
1079.16	2431.2
1078.04	2430.68
1076.92	2394.53
1075.8	2445.25
1074.68	2415.79
1073.57	2368.53
1072.45	2361.35
1071.33	2436.51
1070.21	2295.84
1069.09	2346.51
1067.97	2323.78
1066.85	2343.29
1065.73	2362.8
1064.61	2368.97
1063.49	2379.58
1062.37	2334.65
1061.25	2416.33
1060.12	2446.9
1059	2410.87
1057.88	2432.55
1056.76	2381
1055.64	2245.16
1054.51	2377.77
1053.39	2426.06
1052.27	2370.12
1051.15	2473.8
1050.02	2491
1048.9	2404.06
1047.77	2481.09
1046.65	2460.63
1045.53	2468.97
1044.4	2428.6
1043.28	2439.15
1042.15	2531.57
1041.02	2685.91
1039.9	2632.25
1038.77	2678.14
1037.65	2668.73
1036.52	2712.37
1035.39	2899.66
1034.27	2905.67
1033.14	3055.28
1032.01	3006.04
1030.88	2908.24
1029.76	3161.52
1028.63	3209.41
1027.5	3266.1
1026.37	3329.4
1025.24	3324.28
1024.11	3425.02
1022.99	3492.65
1021.86	3425.78
1020.73	3570.51
1019.6	3576.37
1018.47	3602.05
1017.33	3654.14
1016.2	3776.69
1015.07	3745.06
1013.94	3808.11
1012.81	3919.54
1011.68	4037.52
1010.55	4102.66
1009.42	4163.37
1008.28	4204.26
1007.15	4412.22
1006.02	4505.79
1004.88	4636.69
1003.75	4668.66
1002.62	4823.62
1001.48	4998.28
1000.35	5054.31
999.215	5046.65
998.08	5346.25
996.945	5536.01
995.811	5732.27
994.675	5814.4
993.54	6111.38
992.404	6655.98
991.268	6825.53
990.132	7312.77
988.995	7819.51
987.858	8275.66
986.722	8764.47
985.584	9169.86
984.446	9421.85
983.309	9538.03
982.171	9785.45
981.033	9820.56
979.895	10120.3
978.756	10166.3
977.617	10260.3
976.478	10494.2
975.338	10430.8
974.198	10443.8
973.059	10555.2
971.919	10559.5
970.778	10513.6
969.638	10692.5
968.497	10631.3
967.355	10928
966.215	11010.8
965.073	11108.8
963.931	11189.3
962.789	11287.2
961.646	11411.2
960.504	11400.1
959.361	11410.7
958.218	11728.5
957.075	11871.9
955.932	11899.9
954.788	11969.2
953.644	12210.4
952.499	12386.2
951.354	12629.4
950.21	12685.5
949.065	12791.5
947.92	13199.7
946.774	13420.8
945.629	13396.2
944.482	13691
943.337	13811.9
942.19	14334.6
941.043	14739.7
939.896	14840.8
938.749	14726.9
937.602	14630.5
936.454	14061.1
935.306	13756.6
934.158	13482.6
933.01	12694.8
931.861	11957.2
930.712	10975.1
929.562	9804.82
928.413	8472.58
927.264	7344.52
926.114	6284.06
924.964	5654.87
923.813	5099.56
922.663	4674.31
921.512	4474.27
920.36	4458.17
919.209	4223.65
918.058	4127.61
916.906	4046.75
915.754	3946.46
914.602	3824.61
913.449	3882.13
912.296	3900.74
911.143	3904.22
909.989	3825.66
908.836	3876.65
907.683	3627.65
906.528	3717.49
905.374	3708.06
904.219	3741.78
903.064	3818.6
901.909	3710
900.754	3666.1
899.599	3594.2
898.442	3627.9
897.286	3640.05
896.13	3542.37
894.974	3634.19
893.817	3657.09
892.66	3492.75
891.503	3472.64
890.345	3536.43
889.188	3492.66
888.029	3500.51
886.871	3583.6
885.712	3496.86
884.554	3551.98
883.395	3478.17
882.235	3486.02
881.076	3435.88
879.916	3443.73
878.756	3350.7
877.596	3446.55
876.436	3366.42
875.274	3402.17
874.113	3410.02
872.952	3342.82
871.791	3410.7
870.629	3354.24
869.467	3374.95
868.305	3284.25
867.142	3328.52
865.979	3394.19
864.816	3391.32
863.653	3397.02
862.489	3210.1
861.326	3290.72
860.162	3240.81
858.997	3374.85
857.833	3282.19
856.668	3223.76
855.503	3270.09
854.338	3250.16
853.172	3249.46
852.007	3233.81
850.841	3211.76
849.674	3213.2
848.508	3255.21
847.341	3277.98
846.174	3326.35
845.007	3167.78
843.839	3237.48
842.672	3179.21
841.504	3219.03
840.335	3111.77
839.167	3153.72
837.998	3210.57
836.829	3167.28
835.659	3224.09
834.49	3268.11
833.32	3158.85
832.15	3164.55
830.979	3263.87
829.81	3244.03
828.639	3328.4
827.468	3370.21
826.296	3256.81
825.125	3164.72
823.953	3227.79
822.781	3195.23
821.608	3294.37
820.436	3334.01
819.264	3265.35
818.09	3203.09
816.917	3240.6
815.743	3275.97
814.569	3237.08
813.396	3259.71
812.221	3186.92
811.047	3285.87
809.872	3092.29
808.696	3201.81
807.521	3281.63
806.346	3115.71
805.17	3170.09
803.994	3095.31
802.817	3145.44
801.641	3110.91
800.464	2972.71
799.287	2967.84
798.109	2901.63
796.932	2949.64
795.754	2940.55
794.576	2965.28
793.397	2897.02
792.219	2873.16
791.04	2908.44
789.86	2827.57
788.682	2845.96
787.502	2853.79
786.322	2760.32
785.142	2820.91
783.961	2868.82
782.78	2747.99
781.6	2751.61
780.419	2866.96
779.237	2718.81
778.056	2819.36
776.873	2690.25
775.691	2677.03
774.509	2788.06
773.326	2726.4
772.143	2715.29
770.96	2687.34
769.776	2707.8
768.593	2709.32
767.408	2651.95
766.225	2748.1
765.04	2711.77
763.855	2660.74
762.67	2592.93
761.484	2611.27
760.299	2669.52
759.113	2608.04
757.928	2578.09
756.741	2697.17
755.555	2593.76
754.368	2607.89
753.181	2722.69
751.993	2566.91
750.806	2524.42
749.618	2603.53
748.43	2586.2
747.241	2531.16
746.053	2461.49
744.864	2601.28
743.675	2489.74
742.485	2508.04
741.296	2534.7
740.106	2506.95
738.916	2447.83
737.726	2560.25
736.535	2425.86
735.344	2521.51
734.152	2502.15
732.961	2518.32
731.77	2492.71
730.577	2387.72
729.386	2481.18
728.192	2403.39
727	2413.3
725.807	2393.99
724.614	2512.42
723.42	2415.91
722.227	2448.75
721.032	2500.36
719.838	2387.23
718.644	2347.11
717.449	2436.21
716.254	2458.6
715.059	2551.81
713.863	2411.72
712.667	2527.8
711.471	2431.49
710.274	2516.29
709.078	2613.55
707.881	2409.1
706.684	2498.02
705.486	2518.27
704.289	2546.83
703.091	2525.49
701.893	2547.8
700.694	2563.87
699.495	2640.17
698.297	2679.05
697.098	2746.99
695.897	2679.97
694.698	2756.17
693.498	2736.9
692.298	2798.54
691.098	2812.45
689.896	2828.43
688.695	2838.18
687.494	2897.67
686.293	2928.13
685.091	3045.58
683.889	3104.99
682.687	3112.6
681.483	3111.92
680.28	3057.43
679.077	3313.39
677.874	3267.15
676.671	3351.25
675.467	3381.54
674.263	3368.4
673.058	3307.72
671.854	3472.35
670.648	3312.48
669.443	3375.8
668.237	3370.93
667.031	3479.65
665.825	3377.73
664.619	3329.51
663.413	3382.45
662.206	3233.15
660.999	3220.07
659.792	3285.37
658.584	3313.52
657.376	3217.97
656.168	3196.66
654.96	3150.63
653.751	3102.56
652.542	3301.67
651.333	3068.26
650.123	3191.11
648.914	3217.18
647.704	3105.35
646.493	3234.29
645.283	3042.29
644.072	3117.71
642.861	3098.53
641.649	3110.19
640.438	3041.69
639.227	3273.21
638.015	3069.12
636.802	3302.59
635.589	3106.8
634.376	3143.07
633.163	3208.06
631.95	3195.05
630.736	3190.25
629.522	3263.4
628.308	3379.57
627.094	3401.39
625.879	3384.25
624.664	3459.34
623.448	3554.88
622.233	3627.85
621.018	3584.05
619.801	3505.46
618.585	3555.87
617.368	3551
616.151	3560.45
614.935	3492.16
613.717	3364.59
612.499	3410.89
611.281	3332.45
610.062	3164.11
608.845	3095.98
607.626	3172.95
606.407	3019.05
605.188	3016.35
603.968	2934.02
602.748	2874.18
601.528	2832.73
600.308	2854.56
599.087	2788.65
597.866	2796.2
596.646	2705.87
595.424	2764.4
594.202	2655.77
592.98	2738.73
591.758	2599.6
590.535	2725.31
589.312	2535.33
588.09	2711.91
586.866	2560.68
585.643	2670.02
584.419	2626.7
583.195	2556.97
581.971	2546.24
580.746	2649.38
579.521	2709.78
578.296	2595.37
577.07	2615.12
575.845	2649.09
574.619	2642.41
573.393	2651.99
572.166	2771.19
570.939	2756.37
569.713	2737.5
568.485	2840.37
567.258	2906.69
566.029	2806.68
564.802	3031.12
563.573	2904.77
562.345	3070.32
561.115	3142.59
559.887	3220.9
558.657	3141.21
557.428	3351.1
556.197	3536.61
554.967	3513.57
553.736	3670.63
552.506	3700.17
551.274	3838.92
550.043	4121.18
548.812	4126.34
547.58	4303.3
546.348	4696.42
545.115	4933.8
543.883	5092.29
542.649	5531.42
541.416	5883.54
540.183	6239.54
538.949	6704.37
537.715	7409.1
536.48	8014.68
535.246	9164.53
534.011	10438.9
532.775	11486.9
531.54	12905.3
530.305	15264.1
529.068	18723.9
527.833	23390.7
526.596	31098.2
525.359	45552.8
524.122	74558.1
522.885	137800
521.647	266348
520.409	434519
519.171	493272
517.933	368212
516.694	195717
515.455	98156.4
514.216	56152.2
512.977	37003.4
511.736	26931
510.497	20549.7
509.257	16451.8
508.016	13708.5
506.774	11600.5
505.534	10223.7
504.292	8901.62
503.051	7874.94
501.809	7223.62
500.566	6442.29
499.324	5807.61
498.081	5527.83
496.838	5071.9
495.595	4858.5
494.352	4727.29
493.107	4524.06
491.863	4439.01
490.619	4217.93
489.374	4118.97
488.129	3924.06
486.884	3933.19
485.639	3792.39
484.393	3627.65
483.146	3590.89
481.9	3516.17
480.653	3455.48
479.406	3378.83
478.159	3242.32
476.912	3231.62
475.664	3177.03
474.416	3018.71
473.168	3063.92
471.919	3031.34
470.67	2895.08
469.421	2956.24
468.172	2851.95
466.922	2909.1
465.672	2796.9
464.422	2794.29
463.172	2743.9
461.921	2709.45
460.67	2637.2
459.418	2547.07
458.167	2592.26
456.915	2502.18
455.663	2682.59
454.41	2906.66
453.157	2967.63
451.904	3096.15
450.651	3097.45
449.397	3259.65
448.145	3294.67
446.89	3377.34
445.636	3388.5
444.381	3558.43
443.126	3664.78
441.871	3658.02
440.615	3823.81
439.359	3864.6
438.104	3966.83
436.848	4211.72
435.591	4181.07
434.334	4463.44
433.076	4339.65
431.819	4425.82
430.562	4470.37
429.304	4360.52
428.045	4359.55
426.787	4273.51
425.528	4217.18
424.269	4184.6
423.01	4280.55
421.75	4170.89
420.49	4065.22
419.229	4012.94
417.969	4217.5
416.708	4165.21
415.447	4103.08
414.186	4129.81
412.924	4051.92
411.662	4017.47
410.4	4103.38
409.138	3976.24
407.875	4066.07
406.612	4045.45
405.349	4022.87
404.085	4039.72
402.821	4078.22
401.557	4032.01
400.293	4076.41