File: Finalized Code/Tuned Standard Models/RAMAN Data MITACs/TULSI/PMMA on Si substrate/Si-hydrophilic-blank with PMMA-3.txt
#Wave		#Intensity
1800.53	7228.32
1799.56	7120.44
1798.59	6998.31
1797.62	7050.83
1796.65	7144.41
1795.68	6978.72
1794.71	6956.79
1793.74	6937.44
1792.77	7018.14
1791.8	6829.52
1790.83	6892.26
1789.86	6878.06
1788.89	6825.42
1787.92	6644.68
1786.94	6922.61
1785.97	6841.82
1785	6699.6
1784.03	6810.92
1783.05	6778.84
1782.08	6708.37
1781.11	6673.76
1780.13	6738.95
1779.16	6525.29
1778.19	6552.12
1777.21	6241.42
1776.24	6748.89
1775.27	6494.51
1774.29	6452.32
1773.32	6359.06
1772.34	6380.77
1771.37	6479.09
1770.39	6408.86
1769.42	6606.69
1768.44	6232.73
1767.46	6568.32
1766.49	6447.09
1765.51	6348.87
1764.54	6342.5
1763.56	6404.97
1762.58	6385.85
1761.61	6226.54
1760.63	6138.66
1759.65	6114.5
1758.67	6212.61
1757.7	6257.21
1756.72	6174.48
1755.74	6117.23
1754.76	5986.2
1753.78	6135.14
1752.8	6131.36
1751.83	6150.48
1750.85	6108.56
1749.87	5936.98
1748.89	6162.03
1747.91	5993.05
1746.93	6047.75
1745.95	6074.49
1744.97	5994.53
1743.99	5917.14
1743.01	5921.03
1742.03	5940.15
1741.04	5933.88
1740.06	5813.42
1739.08	5830.02
1738.1	5798.41
1737.12	5761.74
1736.14	5991.31
1735.15	5554.09
1734.17	5682.24
1733.19	5726.71
1732.21	5707.82
1731.22	5648.42
1730.24	5740.98
1729.26	5630.96
1728.27	5875.37
1727.29	5580.61
1726.3	5761.67
1725.32	5535.36
1724.34	5658.18
1723.35	5467.38
1722.37	5418.24
1721.38	5505.63
1720.4	5481.77
1719.41	5440.24
1718.42	5449.25
1717.44	5397.64
1716.45	5497.57
1715.47	5380.32
1714.48	5414.58
1713.49	5458.92
1712.51	5414.93
1711.52	5386.09
1710.53	5460.67
1709.54	5338.53
1708.56	5271.9
1707.57	5321.25
1706.58	5211.81
1705.59	5172.97
1704.61	5232.39
1703.62	5143.18
1702.63	5283.16
1701.64	5204.05
1700.65	5200.49
1699.66	5103.81
1698.67	4944.26
1697.68	5023.77
1696.69	5005.15
1695.7	5084.61
1694.71	4975.48
1693.72	5085.07
1692.73	4988.55
1691.74	4939.81
1690.75	4870.98
1689.75	5050.84
1688.76	4997.09
1687.77	4837.91
1686.78	4912.24
1685.79	4926.31
1684.79	4819.93
1683.8	4791.37
1682.81	4823
1681.82	4814.51
1680.82	4841.12
1679.83	4827.61
1678.84	4806.58
1677.84	4715.42
1676.85	4656.85
1675.85	4600.81
1674.86	4750.12
1673.87	4744.16
1672.87	4600.53
1671.88	4762.26
1670.88	4683.74
1669.89	4630.26
1668.89	4794.39
1667.89	4703.41
1666.9	4669.96
1665.9	4714.01
1664.91	4798.02
1663.91	4472.25
1662.91	4528.8
1661.92	4450.46
1660.92	4514.49
1659.92	4578.48
1658.92	4407.83
1657.92	4559.16
1656.93	4460.94
1655.93	4537.37
1654.93	4459.14
1653.93	4540.52
1652.93	4335.18
1651.93	4361.72
1650.93	4286.08
1649.93	4317.61
1648.94	4336.66
1647.94	4380.61
1646.94	4202.94
1645.94	4329.05
1644.93	4432.71
1643.93	4280.02
1642.93	4304.03
1641.93	4298.19
1640.93	4262.5
1639.93	4353.64
1638.93	4181.23
1637.93	4202.75
1636.92	4236.69
1635.92	4213.47
1634.92	4307.01
1633.92	4204.32
1632.91	4191.05
1631.91	4028.85
1630.91	4124.83
1629.9	4312.58
1628.9	4133.08
1627.9	3990.86
1626.89	3923.1
1625.89	3974.37
1624.88	3988.44
1623.88	4027.29
1622.87	3974.44
1621.87	4003.36
1620.86	4017.41
1619.86	3915.07
1618.85	3812.76
1617.85	3918.43
1616.84	3816.17
1615.83	3941.58
1614.83	4007.58
1613.82	3855.89
1612.81	3815.55
1611.81	3799.94
1610.8	3739.85
1609.79	3729.2
1608.78	3871.75
1607.78	3942.61
1606.77	3860.3
1605.76	3778.03
1604.75	3745.17
1603.74	3724.67
1602.73	3751.06
1601.72	3639.27
1600.71	3823.54
1599.7	3714.24
1598.69	3656.78
1597.68	3702.88
1596.67	3642.97
1595.66	3664.41
1594.65	3634.1
1593.64	3591.48
1592.63	3558.74
1591.62	3718.07
1590.61	3490.83
1589.6	3551.65
1588.58	3472.18
1587.57	3572.35
1586.56	3460.93
1585.55	3440.55
1584.54	3535.75
1583.52	3557.16
1582.51	3453.2
1581.5	3464.79
1580.48	3466.54
1579.47	3537.07
1578.46	3487.24
1577.44	3425.14
1576.43	3446.54
1575.41	3328.03
1574.4	3420.6
1573.38	3410.09
1572.37	3463.36
1571.35	3332.68
1570.34	3381.04
1569.32	3314.17
1568.3	3281.63
1567.29	3371.63
1566.27	3343.99
1565.25	3196.35
1564.24	3416.1
1563.22	3395.82
1562.2	3353.51
1561.19	3247.59
1560.17	3193.1
1559.15	3202.24
1558.13	3267.62
1557.12	3218.05
1556.1	3271.18
1555.08	3189.85
1554.06	3123.22
1553.04	3254.53
1552.02	3229.43
1551	3131.08
1549.98	3181.72
1548.96	3098.07
1547.94	3143.81
1546.92	3074.84
1545.9	3064.46
1544.88	3019.92
1543.86	3141.25
1542.84	3065.02
1541.82	3064.4
1540.79	2976.03
1539.77	2987.61
1538.75	3052.78
1537.73	3059.46
1536.71	3010.13
1535.68	2963.26
1534.66	3069.76
1533.64	2857.39
1532.61	2951.71
1531.59	2907.31
1530.57	2921.32
1529.54	3008.27
1528.52	2856.91
1527.49	3021.63
1526.47	2935.94
1525.45	2913.48
1524.42	2995.48
1523.4	3028.88
1522.37	2843.7
1521.34	2823.69
1520.32	2912.93
1519.29	2885.64
1518.27	2729.76
1517.24	2828.66
1516.21	2779.58
1515.19	2779.01
1514.16	2785.72
1513.13	2731.82
1512.1	2888.79
1511.08	2754.93
1510.05	2747.1
1509.02	2666.61
1507.99	2784.72
1506.96	2694.58
1505.94	2737.6
1504.91	2715.26
1503.88	2755.83
1502.85	2689.95
1501.82	2694.24
1500.79	2715.45
1499.76	2639.95
1498.73	2711.93
1497.7	2595.38
1496.67	2638.33
1495.64	2700.6
1494.61	2550.31
1493.58	2675.35
1492.54	2595.14
1491.51	2640.46
1490.48	2707.49
1489.45	2608.02
1488.42	2554.42
1487.38	2512.9
1486.35	2529.26
1485.32	2405.8
1484.28	2516.18
1483.25	2493.97
1482.22	2604.28
1481.18	2488.14
1480.15	2509.3
1479.12	2467.85
1478.08	2525.12
1477.05	2498.13
1476.01	2475.96
1474.98	2448.99
1473.94	2458.11
1472.91	2438.37
1471.87	2497.98
1470.83	2437.37
1469.8	2405.63
1468.76	2424.36
1467.73	2563.19
1466.69	2452.19
1465.65	2418.07
1464.61	2482.39
1463.58	2414.67
1462.54	2387.78
1461.5	2387.29
1460.46	2362.81
1459.42	2405.5
1458.39	2388.22
1457.35	2378.14
1456.31	2353.68
1455.27	2365.18
1454.23	2345.53
1453.19	2369
1452.15	2351.75
1451.11	2315.35
1450.07	2434.57
1449.03	2326.37
1447.99	2278.04
1446.95	2287.14
1445.91	2346.47
1444.87	2259.89
1443.83	2292.9
1442.78	2280.48
1441.74	2258.5
1440.7	2267.59
1439.66	2257.57
1438.62	2233.22
1437.57	2273.36
1436.53	2220.37
1435.49	2133.98
1434.44	2219.46
1433.4	2197.53
1432.36	2271.02
1431.31	2241.94
1430.27	2186.63
1429.22	2162.34
1428.18	2195.27
1427.13	2111.41
1426.09	2110.97
1425.04	2189.15
1424	2157.74
1422.95	2119.2
1421.91	2052.1
1420.86	2137.36
1419.81	2132.17
1418.77	2176.93
1417.72	2155.07
1416.67	2080.91
1415.63	2021.04
1414.58	2032.51
1413.53	2034.47
1412.48	2005.53
1411.44	2019.37
1410.39	2007.08
1409.34	1985.3
1408.29	2013.38
1407.24	2041.45
1406.19	2019.67
1405.14	1981.29
1404.09	2023.58
1403.04	2001.82
1401.99	1873.35
1400.94	2008.11
1399.89	2024.28
1398.84	1917.22
1397.79	1980.8
1396.74	1944.86
1395.69	1968.14
1394.64	1882.49
1393.58	1953.13
1392.53	1929.05
1391.48	1957.05
1390.43	1916.43
1389.38	1911.3
1388.32	1941.65
1387.27	1896.33
1386.22	1874.66
1385.16	1905
1384.11	1845.53
1383.05	1729.38
1382	1828.23
1380.95	1839.66
1379.89	1884.15
1378.84	1827.1
1377.78	1864.49
1376.73	1849.94
1375.67	1868.44
1374.62	1750.12
1373.56	1803.99
1372.5	1857.85
1371.45	1734.89
1370.39	1772.24
1369.33	1877.9
1368.28	1799.78
1367.22	1754.65
1366.16	1796.68
1365.1	1737.45
1364.05	1711.2
1362.99	1708.49
1361.93	1708.14
1360.87	1693.67
1359.81	1749.77
1358.75	1653
1357.69	1746.69
1356.63	1673.47
1355.58	1734.22
1354.52	1752.66
1353.46	1778.13
1352.4	1688.52
1351.33	1725.74
1350.27	1685.48
1349.21	1619.41
1348.15	1633.16
1347.09	1675.05
1346.03	1714.57
1344.97	1688.42
1343.91	1688.08
1342.84	1626.78
1341.78	1635.82
1340.72	1656.57
1339.66	1576.58
1338.59	1576.25
1337.53	1697.69
1336.46	1680.95
1335.4	1619.74
1334.34	1680.25
1333.27	1593.33
1332.21	1553.24
1331.14	1578.64
1330.08	1730.3
1329.01	1610.72
1327.95	1577.66
1326.88	1626.41
1325.82	1562.99
1324.75	1543.98
1323.68	1553
1322.62	1604.05
1321.55	1510.34
1320.48	1500.69
1319.42	1584.38
1318.35	1565.39
1317.28	1565.06
1316.21	1543.75
1315.15	1573.74
1314.08	1568.75
1313.01	1563.77
1311.94	1528.49
1310.87	1511.87
1309.8	1518.54
1308.73	1490.28
1307.67	1606.38
1306.59	1426.82
1305.53	1482.37
1304.46	1479.74
1303.38	1495.72
1302.31	1441.91
1301.24	1527.65
1300.17	1436.67
1299.1	1396.86
1298.03	1422.13
1296.96	1452.03
1295.88	1449.41
1294.81	1360.86
1293.74	1465.06
1292.67	1411.37
1291.59	1380.9
1290.52	1322.61
1289.45	1426.72
1288.38	1396.28
1287.3	1458.6
1286.23	1439.75
1285.15	1390.77
1284.08	1422.93
1283	1390.19
1281.93	1403.8
1280.85	1378.03
1279.78	1389.32
1278.7	1409.87
1277.63	1328.57
1276.55	1411.6
1275.47	1378.91
1274.4	1371.69
1273.32	1327.46
1272.25	1354.93
1271.17	1354.65
1270.09	1391.35
1269.01	1361.02
1267.93	1339.94
1266.86	1383.55
1265.78	1251.63
1264.7	1329.87
1263.62	1290.35
1262.54	1363.93
1261.46	1264.43
1260.38	1264.17
1259.3	1284.66
1258.22	1247.5
1257.14	1249.55
1256.06	1309.22
1254.98	1216.76
1253.9	1345.54
1252.82	1289.97
1251.74	1262.06
1250.66	1257.2
1249.58	1203.99
1248.5	1275.09
1247.41	1272.52
1246.33	1219.34
1245.25	1285.79
1244.17	1271.72
1243.08	1202.48
1242	1252.8
1240.92	1314.59
1239.83	1229.3
1238.75	1160.13
1237.67	1217.31
1236.58	1173.42
1235.5	1131.85
1234.41	1225.72
1233.33	1266.78
1232.24	1202.27
1231.16	1165.32
1230.07	1169.66
1228.98	1196.93
1227.9	1221.9
1226.81	1166.63
1225.72	1159.52
1224.64	1168.44
1223.55	1216.3
1222.46	1119.86
1221.38	1110.47
1220.29	1094.21
1219.2	1135.18
1218.11	1157.82
1217.02	1045.48
1215.93	1109.31
1214.85	1040.47
1213.76	1099.7
1212.67	1090.32
1211.58	1112.95
1210.49	1124.14
1209.4	1069.08
1208.31	1057.44
1207.22	1070.92
1206.13	1050.15
1205.04	1061.34
1203.94	1083.94
1202.85	1090.56
1201.76	1053.83
1200.67	1005.72
1199.58	1076.19
1198.49	1039.49
1197.39	1037
1196.3	1064.12
1195.21	1038.84
1194.11	1031.79
1193.02	1088.5
1191.93	1029.08
1190.83	1056.18
1189.74	1017.27
1188.64	1030.71
1187.55	975.898
1186.46	1084.86
1185.36	1093.73
1184.26	988.925
1183.17	993.264
1182.07	990.783
1180.98	951.952
1179.88	1015.35
1178.79	1081
1177.69	1071.69
1176.59	998.825
1175.49	966.842
1174.4	966.639
1173.3	986.854
1172.2	986.647
1171.1	990.976
1170	995.302
1168.91	942.959
1167.81	1037.94
1166.71	962.955
1165.61	974.08
1164.51	964.816
1163.41	980.464
1162.31	973.467
1161.21	984.58
1160.11	991.162
1159.01	954.754
1157.91	1029.2
1156.81	1004.11
1155.71	956.414
1154.61	1024.03
1153.5	992.174
1152.4	971.629
1151.3	953.352
1150.2	966.704
1149.09	986.824
1147.99	1000.16
1146.89	1020.27
1145.79	986.203
1144.68	920.563
1143.58	965.486
1142.47	938.219
1141.37	935.767
1140.26	940.079
1139.16	942.135
1138.05	971.232
1136.95	946.245
1135.84	979.834
1134.74	878.287
1133.63	990.679
1132.53	1003.98
1131.42	931.747
1130.31	929.301
1129.21	1050.59
1128.1	915.415
1126.99	915.222
1125.88	1007.21
1124.78	991.261
1123.67	948.354
1122.56	905.465
1121.45	871.579
1120.34	961.23
1119.23	934.083
1118.12	1001.23
1117.02	884.312
1115.91	964.909
1114.8	973.68
1113.69	915.156
1112.58	863.385
1111.47	961.854
1110.35	948.202
1109.24	880.768
1108.13	855.935
1107.02	880.397
1105.91	902.609
1104.8	927.05
1103.68	920.139
1102.57	904.276
1101.46	915.275
1100.35	859.148
1099.23	901.468
1098.12	887.859
1097.01	918.975
1095.89	914.31
1094.78	907.413
1093.66	940.739
1092.55	893.625
1091.44	880.035
1090.32	924.512
1089.21	879.664
1088.09	897.336
1086.97	950.708
1085.86	881.339
1084.74	867.768
1083.62	874.276
1082.51	865.172
1081.39	954.163
1080.27	824.687
1079.16	906.964
1078.04	844.39
1076.92	857.576
1075.8	895.254
1074.68	888.385
1073.57	888.198
1072.45	912.492
1071.33	921.199
1070.21	858.715
1069.09	903.017
1067.97	811.654
1066.85	864.84
1065.73	849.098
1064.61	875.586
1063.49	866.513
1062.37	904.093
1061.25	877.252
1060.12	823.776
1059	896.86
1057.88	896.67
1056.76	823.253
1055.64	856.357
1054.51	916.064
1053.39	940.264
1052.27	911.242
1051.15	833.466
1050.02	913.073
1048.9	868.565
1047.77	886.103
1046.65	872.627
1045.53	932.229
1044.4	938.673
1043.28	1024.8
1042.15	1033.43
1041.02	1035.42
1039.9	1094.93
1038.77	1130.08
1037.65	1277.98
1036.52	1257.82
1035.39	1328.27
1034.27	1361.14
1033.14	1440.38
1032.01	1435.65
1030.88	1472.89
1029.76	1465.95
1028.63	1611.33
1027.5	1606.57
1026.37	1672.42
1025.24	1687.51
1024.11	1808.45
1022.99	1788.22
1021.86	1909.09
1020.73	1919.7
1019.6	1961.16
1018.47	1951.93
1017.33	2072.66
1016.2	2061.21
1015.07	2129.03
1013.94	2121.97
1012.81	2238.16
1011.68	2382.91
1010.55	2349.4
1009.42	2313.72
1008.28	2436.36
1007.15	2594.13
1006.02	2666.11
1004.88	2740.26
1003.75	2954.99
1002.62	2899.44
1001.48	3142.59
1000.35	3174.86
999.215	3444.19
998.08	3474.18
996.945	3763.08
995.811	3720.6
994.675	4009.32
993.54	4322.04
992.404	4603.94
991.268	4861.6
990.132	5419.38
988.995	5716.2
987.858	6251.65
986.722	6675.19
985.584	7004.39
984.446	7331.27
983.309	7559.51
982.171	7474.75
981.033	7761.94
979.895	7954.95
978.756	8047.29
977.617	8021.53
976.478	8028.57
975.338	8251.95
974.198	8258.93
973.059	8228.78
971.919	8237.95
970.778	8618.31
969.638	8433.1
968.497	8586.26
967.355	8566.98
966.215	8648.06
965.073	8846.88
963.931	8951.85
962.789	8991.37
961.646	8891.37
960.504	9209.83
959.361	9262.34
958.218	9319.19
957.075	9624.29
955.932	9607
954.788	9781.29
953.644	9766.14
952.499	9870.69
951.354	10144.9
950.21	10299.3
949.065	10297.1
947.92	10412.3
946.774	10936.2
945.629	10877.3
944.482	11161.8
943.337	11431
942.19	11704.4
941.043	12116.6
939.896	12098.9
938.749	12176.6
937.602	11839.8
936.454	11670.2
935.306	11216.5
934.158	10904
933.01	10259.9
931.861	9648.59
930.712	8692.93
929.562	7564.33
928.413	6369.06
927.264	5410.38
926.114	4491.09
924.964	3725.9
923.813	3428.56
922.663	2995.02
921.512	2838.61
920.36	2543.82
919.209	2554.09
918.058	2493
916.906	2483.82
915.754	2329.84
914.602	2342.31
913.449	2212.19
912.296	2127.48
911.143	2191.8
909.989	2063.96
908.836	2093.74
907.683	2082.5
906.528	2110.1
905.374	2129.06
904.219	2059.59
903.064	2130.31
901.909	2162.19
900.754	2116.46
899.599	2081.54
898.442	2001.38
897.286	2108.64
896.13	2112.5
894.974	1864.46
893.817	1965.23
892.66	2003.54
891.503	1936.41
890.345	1996.23
889.188	1952.79
888.029	1930.87
886.871	1939.05
885.712	1938.64
884.554	1940.37
883.395	1918.47
882.235	1913.77
881.076	1816.72
879.916	1824.92
878.756	1897.51
877.596	1800.53
876.436	1819.46
875.274	1844.81
874.113	1842.27
872.952	1807.57
871.791	1772.88
870.629	1836.8
869.467	1780.69
868.305	1797.45
867.142	1773.5
865.979	1826.65
864.816	1682.82
863.653	1695.3
862.489	1744.16
861.326	1596.15
860.162	1685.65
858.997	1584.77
857.833	1736.24
856.668	1667.46
855.503	1686.34
854.338	1675.29
853.172	1753.98
852.007	1619.04
850.841	1640.05
849.674	1671.72
848.508	1590.25
847.341	1619.78
846.174	1700.51
845.007	1672.42
843.839	1657.13
842.672	1669.57
841.504	1609.52
840.335	1720
839.167	1659.97
837.998	1678.78
836.829	1672.03
835.659	1533.25
834.49	1564.86
833.32	1617.74
832.15	1645.06
830.979	1672.36
829.81	1778.36
828.639	1792.87
827.468	1720.19
826.296	1715.57
825.125	1727.95
823.953	1702.08
822.781	1733.58
821.608	1777.81
820.436	1741.33
819.264	1738.83
818.09	1689.63
816.917	1646.83
815.743	1697.39
814.569	1680.06
813.396	1664.85
812.221	1645.41
811.047	1634.45
809.872	1691.33
808.696	1572.3
807.521	1595.26
806.346	1641.52
805.17	1577.64
803.994	1585.76
802.817	1511.34
801.641	1553.34
800.464	1506.45
799.287	1461.71
798.109	1505.8
796.932	1456.85
795.754	1460.76
794.576	1430.86
793.397	1346.03
792.219	1360.52
791.04	1427.82
789.86	1313.48
788.682	1270.97
787.502	1283.36
786.322	1375.94
785.142	1320.79
783.961	1305.73
782.78	1309.67
781.6	1252.46
780.419	1311.21
779.237	1332.01
778.056	1236.9
776.873	1213.46
775.691	1246.89
774.509	1206.61
773.326	1174.77
772.143	1286.08
770.96	1260.55
769.776	1165.6
768.593	1194.79
767.408	1167.2
766.225	1206.89
765.04	1124.65
763.855	1111.79
762.67	1197.7
761.484	1140.72
760.299	1167.78
759.113	1157.03
757.928	1242.86
756.741	1179.62
755.555	1156.28
754.368	1118.26
753.181	1139
751.993	1063.25
750.806	1096.57
749.618	1087.95
748.43	1003.88
747.241	1037.19
746.053	1060.01
744.864	1024.18
743.675	1072.11
742.485	1036.29
741.296	996.3
740.106	1002.36
738.916	1004.24
737.726	1039.58
736.535	1003.8
735.344	999.403
734.152	1020.09
732.961	990.611
731.77	1046.81
730.577	1023.61
729.386	952.373
728.192	1016.9
727	979.099
725.807	991.41
724.614	1001.63
723.42	1089.04
722.227	1028.31
721.032	1015.58
719.838	1032.03
718.644	1029.73
717.449	977.402
716.254	1041.78
715.059	1029.06
713.863	1030.92
712.667	1109.82
711.471	1049.2
710.274	1003.19
709.078	1044.59
707.881	1019.39
706.684	1023.33
705.486	1087.58
704.289	1091.5
703.091	1112.05
701.893	1132.59
700.694	1107.41
699.495	1167.41
698.297	1111.08
697.098	1166.9
695.897	1183.25
694.698	1172.62
693.498	1274.04
692.298	1288.28
691.098	1258.97
689.896	1322.98
688.695	1374.52
687.494	1380.44
686.293	1456.81
685.091	1491.71
683.889	1476.89
682.687	1511.78
681.483	1579.77
680.28	1676.72
679.077	1670.15
677.874	1605.64
676.671	1719.07
675.467	1770.4
674.263	1819.64
673.058	1846.12
671.854	1789.91
670.648	1872.18
669.443	1884.17
668.237	1809.4
667.031	1844.11
665.825	1821
664.619	1899.04
663.413	1805.76
662.206	1764.1
660.999	1722.46
659.792	1707.65
658.584	1709.34
657.376	1733.7
656.168	1681.8
654.96	1679.37
653.751	1643.98
652.542	1635.39
651.333	1682.39
650.123	1638.79
648.914	1640.49
647.704	1648.37
646.493	1576
645.283	1622.96
644.072	1587.65
642.861	1642.82
641.649	1650.68
640.438	1674.98
639.227	1602.7
638.015	1604.41
636.802	1665.67
635.589	1646.83
634.376	1654.68
633.163	1566.06
631.95	1690.89
630.736	1645.39
629.522	1708.62
628.308	1753.36
627.094	1802.18
625.879	1773.09
624.664	1926.41
623.448	1954.67
622.233	2005.46
621.018	1888.28
619.801	2047.58
618.585	2075.79
617.368	2054.87
616.151	1937.79
614.935	1880.08
613.717	1889.9
612.499	1838.36
611.281	1694.85
610.062	1622.94
608.845	1636.89
607.626	1607.93
606.407	1560.59
605.188	1431.59
603.968	1416.99
602.748	1435.05
601.528	1328.61
600.308	1307.91
599.087	1342.31
597.866	1270.63
596.646	1290.74
595.424	1157.95
594.202	1218.84
592.98	1263.4
591.758	1098.11
590.535	1156.93
589.312	1107.81
588.09	1111.64
586.866	1239.63
585.643	1131.5
584.419	1143.46
583.195	1177.79
581.971	1130.76
580.746	1171.18
579.521	1152.62
578.296	1186.92
577.07	1109.45
575.845	1129.52
574.619	1212.54
573.393	1212.28
572.166	1240.44
570.939	1272.64
569.713	1302.8
568.485	1310.63
567.258	1346.85
566.029	1421.59
564.802	1386.81
563.573	1487.86
562.345	1548.33
561.115	1533.81
559.887	1644.89
558.657	1733.64
557.428	1781.85
556.197	1852.32
554.967	1843.81
553.736	2070.04
552.506	2156.58
551.274	2222.85
550.043	2390.2
548.812	2634.31
547.58	2641.81
546.348	2924.15
545.115	3103.32
543.883	3330.89
542.649	3719.93
541.416	4094.65
540.183	4370.3
538.949	4811.32
537.715	5371.2
536.48	6094.22
535.246	6952.06
534.011	7916.38
532.775	9116.15
531.54	10601.6
530.305	12775.5
529.068	15613.3
527.833	19892.1
526.596	27151.2
525.359	40123
524.122	66234.9
522.885	125566
521.647	242722
520.409	392523
519.171	439256
517.933	322010
516.694	168282
515.455	84363.4
514.216	48553
512.977	31497.1
511.736	22474.3
510.497	17152.2
509.257	13534.8
508.016	10984.9
506.774	9168.42
505.534	7938.59
504.292	6721.35
503.051	5833.51
501.809	5044.3
500.566	4473.93
499.324	3965.93
498.081	3692.57
496.838	3425.34
495.595	3254.36
494.352	3067.43
493.107	2906.61
491.863	2651.8
490.619	2557.17
489.374	2544.6
488.129	2356.04
486.884	2333.52
485.639	2197.06
484.393	2122.63
483.146	2066.21
481.9	1865.97
480.653	1847.58
479.406	1809.23
478.159	1790.86
476.912	1756.53
475.664	1674.33
474.416	1612.11
473.168	1458.16
471.919	1507.69
470.67	1461.5
469.421	1471.14
468.172	1379.14
466.922	1388.8
465.672	1410.41
464.422	1246.78
463.172	1306.24
461.921	1162.61
460.67	1098.67
459.418	1092.45
458.167	1124.04
456.915	1097.94
455.663	1254.79
454.41	1375.79
453.157	1437.11
451.904	1625.58
450.651	1766.28
449.397	1767.88
448.145	1809.19
446.89	1870.34
445.636	1881.84
444.381	2000.5
443.126	2035.77
441.871	2150.38
440.615	2217.33
439.359	2292.19
438.104	2434.42
436.848	2568.65
435.591	2675.09
434.334	2761.67
433.076	2860.09
431.819	2772.32
430.562	2761.81
429.304	2800.79
428.045	2675.49
426.787	2736.23
425.528	2620.9
424.269	2634.16
423.01	2609.85
421.75	2569.74
420.49	2492.1
419.229	2424.36
417.969	2514.7
416.708	2494.39
415.447	2476.06
414.186	2473.54
412.924	2449.31
411.662	2448.76
410.4	2448.22
409.138	2439.79
407.875	2429.39
406.612	2497.85
405.349	2442.11
404.085	2512.51
402.821	2435.11
401.557	2418.81
400.293	2467.51