File: Finalized Code/CNN Models/RAMAN Data MITACs/Bulk Carbon Ring Identification/Copy of PS.txt
#Wave		#Intensity
1724.09	7067.26
1723.11	7240.19
1722.13	7129.35
1721.15	7206.67
1720.17	7228.04
1719.19	7272.27
1718.21	7227.57
1717.23	7284.48
1716.25	7364.22
1715.27	7570.87
1714.29	7569.29
1713.31	7301.25
1712.33	7266.74
1711.35	7361.62
1710.37	7644.14
1709.38	7487.87
1708.4	7557.29
1707.42	7565.85
1706.44	7518.66
1705.45	7509.49
1704.47	7571.25
1703.49	7572.21
1702.5	7656.71
1701.52	7718.4
1700.54	7790.19
1699.55	7945.45
1698.57	7986.8
1697.58	7937.08
1696.6	7811.51
1695.62	7855.39
1694.63	7942.22
1693.64	7975.94
1692.66	8184
1691.67	8354.07
1690.69	8162.9
1689.7	8340.48
1688.71	8328.64
1687.73	8445.53
1686.74	8567.42
1685.75	8381.46
1684.77	8556.28
1683.78	8441
1682.79	8449.33
1681.81	8366.89
1680.82	8481.08
1679.83	8617.91
1678.84	8643.82
1677.85	8946.79
1676.86	8647.76
1675.87	8718.97
1674.88	8608.91
1673.9	8702.75
1672.91	8786.48
1671.92	8731.81
1670.93	8740.05
1669.94	8667.81
1668.95	8774.11
1667.96	8767.25
1666.96	9079.54
1665.97	8977.14
1664.98	8837.11
1663.99	9181.84
1663	8981.56
1662.01	8992.23
1661.01	9118.36
1660.02	9246.94
1659.03	9398.04
1658.04	9421.16
1657.04	9599.75
1656.05	9871.03
1655.06	10184.8
1654.06	10711.5
1653.07	10849.6
1652.08	11180.5
1651.08	11315.9
1650.09	11806.8
1649.09	11754.3
1648.1	12004.6
1647.1	12162.3
1646.11	12027.1
1645.11	11694.4
1644.12	11559.4
1643.12	11362
1642.13	11157.1
1641.13	11299.7
1640.13	10962.5
1639.14	10982.7
1638.14	10935.4
1637.14	10913.2
1636.15	10761.1
1635.15	10846.2
1634.15	10816.5
1633.15	10906.5
1632.15	11061.4
1631.16	11049.1
1630.16	11164
1629.16	11091.9
1628.16	11341.3
1627.16	11401.2
1626.16	11862.2
1625.16	11839.8
1624.16	12131.2
1623.16	12671.5
1622.16	12775.9
1621.16	13101.7
1620.16	13447.4
1619.16	13792.9
1618.16	14202.9
1617.16	14794.2
1616.16	15522.1
1615.15	16155.2
1614.15	17247.8
1613.15	18546.2
1612.15	20547.1
1611.14	22591.9
1610.14	25447.8
1609.14	30060.2
1608.14	35487.3
1607.13	41959.4
1606.13	49882.7
1605.12	57564.5
1604.12	63655.9
1603.12	67488.3
1602.11	67880.6
1601.11	64101.5
1600.1	56602.1
1599.1	48025.6
1598.09	40894.3
1597.09	34600.5
1596.08	29708.3
1595.08	26474.2
1594.07	23842.8
1593.06	22308.6
1592.06	20856.8
1591.05	20011.4
1590.04	19675.9
1589.04	20136.5
1588.03	21761.2
1587.02	25016.1
1586.01	29841.1
1585	34387.3
1584	37812.9
1582.99	37592.6
1581.98	33644.8
1580.97	28686.7
1579.96	23814.6
1578.95	20266.9
1577.94	18200.6
1576.93	16796
1575.92	15892.6
1574.91	15191.7
1573.9	14523.1
1572.89	13694.6
1571.88	13157.1
1570.87	12930.2
1569.86	12661.6
1568.85	12513.6
1567.84	12210.7
1566.82	12154
1565.81	11915.3
1564.8	11920.1
1563.79	11524.1
1562.77	11391.4
1561.76	11273.4
1560.75	11315.3
1559.74	11241.6
1558.72	11138.5
1557.71	11236.9
1556.69	11234.5
1555.68	11200.2
1554.67	11217.5
1553.65	10982
1552.64	11004.2
1551.62	10803.2
1550.61	10720
1549.59	10663.8
1548.57	10771.8
1547.56	11007.3
1546.54	10882.4
1545.53	10823.8
1544.51	10983.2
1543.49	10743.3
1542.48	10758.2
1541.46	10822
1540.44	10939.6
1539.42	10685.3
1538.41	10639
1537.39	10697.9
1536.37	10918.1
1535.35	10981.8
1534.33	10791.3
1533.31	10639.9
1532.29	10596.1
1531.27	10755.1
1530.25	10760.2
1529.24	10608.9
1528.21	10418.7
1527.19	10736.2
1526.17	10707.1
1525.15	10709.7
1524.13	10787.9
1523.11	10890.5
1522.09	10681
1521.07	10768.9
1520.05	10583.8
1519.03	10740
1518	10764.5
1516.98	10718.4
1515.96	10811
1514.93	10689.5
1513.91	10782.1
1512.89	11049.9
1511.87	10551.3
1510.84	10568.5
1509.82	10780.2
1508.79	10855.8
1507.77	10785.4
1506.74	10763.7
1505.72	10761.4
1504.69	10695.9
1503.67	10866.1
1502.64	10982.7
1501.62	10888.2
1500.59	10905.3
1499.57	11080.1
1498.54	11259.7
1497.51	11487.7
1496.49	12047.9
1495.46	12266
1494.43	12476.7
1493.41	12401.3
1492.38	12054.6
1491.35	11441.6
1490.32	11276.8
1489.29	11189.7
1488.26	11015.4
1487.24	10923.5
1486.21	11187.4
1485.18	11006
1484.15	11030.2
1483.12	10877.9
1482.09	10955.4
1481.06	11006.2
1480.03	11117.5
1479	10991.9
1477.97	11170.7
1476.94	11286.7
1475.91	11405
1474.87	11677.8
1473.84	11257.7
1472.81	11281.9
1471.78	11429
1470.75	11682.3
1469.71	11684.6
1468.68	11547.1
1467.65	11805
1466.62	12147.1
1465.58	12303.5
1464.55	12650.2
1463.51	12905.2
1462.48	13569.5
1461.45	14012
1460.41	14557.8
1459.38	15647.2
1458.34	16979.2
1457.31	18455
1456.27	20086.4
1455.24	21551.2
1454.2	22808.7
1453.16	23546.5
1452.13	23767.3
1451.09	23935.2
1450.05	23906
1449.02	24097.8
1447.98	23660.5
1446.94	23259.4
1445.91	22325.6
1444.87	21610.6
1443.83	20910.3
1442.79	20044.9
1441.75	19314
1440.71	18329.4
1439.68	17721.5
1438.64	16862.2
1437.6	16305.2
1436.56	15511.3
1435.52	14593.2
1434.48	14209.4
1433.44	13564.8
1432.4	13049.8
1431.36	12592.4
1430.32	12271.5
1429.27	11824
1428.23	11553.7
1427.19	11517.7
1426.15	11455.5
1425.11	11457.8
1424.07	11450.6
1423.02	11166.3
1421.98	11216.4
1420.94	11142.4
1419.89	11211.6
1418.85	11108.9
1417.81	10980.1
1416.76	11178.1
1415.72	11039.7
1414.67	11211.4
1413.63	11154.2
1412.58	11242.3
1411.54	11380.5
1410.5	11254.1
1409.45	11199.3
1408.4	11501.7
1407.36	11508.7
1406.31	11408.7
1405.27	11463.3
1404.22	11525.1
1403.17	11672.4
1402.13	11555.8
1401.08	11522.4
1400.03	11363
1398.98	11422.3
1397.94	11486.4
1396.89	11498.1
1395.84	11467.1
1394.79	11640.4
1393.74	11564.3
1392.69	11481.1
1391.64	11431.1
1390.59	11720.5
1389.54	11857.9
1388.49	11836.3
1387.44	12191.8
1386.39	12430.9
1385.34	12826.4
1384.29	13157.7
1383.24	13699.7
1382.19	13829.4
1381.14	14108.2
1380.09	14455.5
1379.03	14679.6
1377.98	14832.6
1376.93	14921.6
1375.88	15147.8
1374.82	15246.2
1373.77	15330.4
1372.72	15388.5
1371.66	15309.6
1370.61	15523.6
1369.56	15447
1368.5	15363.3
1367.45	15560.7
1366.39	15668.3
1365.34	15674.3
1364.28	15522.2
1363.23	15495.3
1362.17	15397.5
1361.12	15443.7
1360.06	15221.1
1359	15573.7
1357.95	15400.6
1356.89	15364.3
1355.83	15068.8
1354.77	15082
1353.72	15144.7
1352.66	15374.4
1351.6	15352.3
1350.54	15403
1349.48	15658.4
1348.43	15760.9
1347.37	15715.1
1346.31	15923.3
1345.25	16213.6
1344.19	16325.2
1343.13	16650.6
1342.07	16926.4
1341.01	17361.9
1339.95	17851.2
1338.89	18201.7
1337.83	18613.1
1336.77	19202.7
1335.7	19695.8
1334.64	20062.1
1333.58	20585.3
1332.52	20590.1
1331.46	20946.6
1330.39	21188
1329.33	21244.3
1328.27	21232.6
1327.2	21347.4
1326.14	20944.7
1325.08	21223.4
1324.01	20802.2
1322.95	20743.8
1321.88	20481.9
1320.82	19902.1
1319.75	19930.5
1318.69	19159.4
1317.62	18970.5
1316.56	18723.4
1315.49	18574.4
1314.43	18411.5
1313.36	18258
1312.29	18097.6
1311.23	18037.6
1310.16	18001
1309.09	17810.4
1308.02	17962.7
1306.96	17790.9
1305.89	17579.5
1304.82	17584.9
1303.75	17816.4
1302.68	17758.9
1301.61	17398.6
1300.55	17518.2
1299.48	17463.1
1298.41	17377.8
1297.34	17348.4
1296.27	17188.7
1295.2	16994.1
1294.13	17122.9
1293.05	16765.7
1291.98	16875.9
1290.91	17023.3
1289.84	16889.4
1288.77	16488.4
1287.7	16654.3
1286.62	16731.9
1285.55	16723.6
1284.48	16411.2
1283.41	16648.9
1282.33	16399.3
1281.26	16523.2
1280.19	16494.1
1279.11	16444
1278.04	16493.7
1276.96	16548
1275.89	16667.2
1274.81	16784
1273.74	16771
1272.66	16978
1271.59	16927.9
1270.51	17190.4
1269.44	17214.3
1268.36	17328.5
1267.28	17151.2
1266.21	17561.3
1265.13	17298.5
1264.05	17377.9
1262.98	17538.1
1261.9	17423.3
1260.82	17273.9
1259.74	17519.5
1258.66	17354
1257.58	17756.4
1256.51	17323.2
1255.43	17603.2
1254.35	17626.9
1253.27	17722.2
1252.19	17425.4
1251.11	17290.1
1250.03	17489.1
1248.95	17704.1
1247.87	17608.1
1246.79	17583.4
1245.7	17814.4
1244.62	17647
1243.54	17804.2
1242.46	17701.2
1241.38	17487.9
1240.29	17571.5
1239.21	17406.6
1238.13	17579.7
1237.04	17520.6
1235.96	17445.5
1234.88	17767.9
1233.79	17740.9
1232.71	17955.2
1231.62	18355.3
1230.54	18484.3
1229.46	18640.9
1228.37	18987.8
1227.29	19419.4
1226.2	19614.6
1225.11	19635.5
1224.03	20030
1222.94	20277.6
1221.85	20176.9
1220.77	20330.4
1219.68	20346.5
1218.59	20447.3
1217.51	21102.1
1216.42	21614.7
1215.33	22165.9
1214.24	23190.5
1213.15	24573.8
1212.06	26320.1
1210.97	27670
1209.89	29753.2
1208.8	31675.4
1207.71	33907.4
1206.62	35613.1
1205.53	37964.3
1204.44	39903.5
1203.34	41869.2
1202.25	43361.6
1201.16	44812.2
1200.07	45278.9
1198.98	46587.1
1197.89	46722.5
1196.79	47578.4
1195.7	47383.1
1194.61	46467.8
1193.52	45272.7
1192.42	43916.4
1191.33	42553.8
1190.24	40957.4
1189.14	39944.4
1188.05	39232.3
1186.95	39703.5
1185.86	41216.3
1184.76	43153.7
1183.67	44915.1
1182.57	46503
1181.48	45883.5
1180.38	43498.8
1179.29	39238.9
1178.19	34340.5
1177.09	29351.2
1176	25685.3
1174.9	22987.9
1173.8	21414.8
1172.7	20012.6
1171.61	19479.7
1170.51	18529.8
1169.41	18380.5
1168.31	18086.2
1167.21	18086.7
1166.11	18016.9
1165.01	18443.2
1163.91	18857.9
1162.81	19888.3
1161.71	21737.5
1160.61	24047.5
1159.51	27164.1
1158.41	30914.9
1157.31	34137
1156.21	36279.4
1155.11	36492.7
1154.01	33967
1152.9	30502.6
1151.8	25619
1150.7	21306.7
1149.6	18357.8
1148.49	15945.1
1147.39	14898.9
1146.29	13747.1
1145.18	13453
1144.08	12759.9
1142.97	12028.7
1141.87	11685.6
1140.76	11018.1
1139.66	10688.9
1138.55	10423
1137.45	10089.5
1136.34	10008.4
1135.24	9790.05
1134.13	9715.81
1133.02	9634.85
1131.92	9376.21
1130.81	9293.12
1129.7	9317.99
1128.59	9345.09
1127.49	9286.78
1126.38	9286.92
1125.27	9302.78
1124.16	9478.09
1123.05	9516.35
1121.94	9956.45
1120.83	10167.4
1119.72	10281.8
1118.61	10445.5
1117.5	10790.7
1116.39	10918.3
1115.28	11124.3
1114.17	11092.7
1113.06	11309.7
1111.95	11392.3
1110.84	11409.9
1109.73	11814.8
1108.61	11950.9
1107.5	12411.5
1106.39	12838.4
1105.28	13016.7
1104.16	13407.4
1103.05	14162.4
1101.93	14364.9
1100.82	14544.9
1099.71	14570.6
1098.59	14632.1
1097.48	14825.3
1096.36	14786.2
1095.25	14720.3
1094.13	14585.2
1093.02	14463.6
1091.9	14522.7
1090.78	14267.4
1089.67	14152.6
1088.55	14260.8
1087.43	14273.2
1086.32	14078.2
1085.2	14271.1
1084.08	14452.7
1082.96	14480.6
1081.84	14555.2
1080.73	14547.4
1079.61	14635.3
1078.49	14293.7
1077.37	14201.5
1076.25	14393.9
1075.13	14399.5
1074.01	14658.5
1072.89	14677.4
1071.77	14849.6
1070.65	15010.5
1069.53	15029.3
1068.4	14932.6
1067.28	14542.9
1066.16	14410.8
1065.04	14261.1
1063.92	13991.6
1062.79	13655.7
1061.67	13612.6
1060.55	13290.3
1059.42	13293.8
1058.3	13235.4
1057.18	13110.5
1056.05	12936.9
1054.93	12978.2
1053.8	13123.6
1052.68	13171.5
1051.55	13502.6
1050.43	13694.1
1049.3	14055.9
1048.18	14508.2
1047.05	14896.2
1045.92	15995.6
1044.8	17004
1043.67	18400.8
1042.54	20035.4
1041.41	22437.7
1040.29	25834.6
1039.16	30093
1038.03	36662
1036.9	44657.5
1035.77	55230
1034.64	66183.5
1033.51	76082.5
1032.38	81132.3
1031.25	79872.9
1030.12	73767.2
1028.99	64648.9
1027.86	54000
1026.73	44223.4
1025.6	35752.2
1024.47	29214.8
1023.34	25129.2
1022.21	21487.5
1021.07	18887.6
1019.94	17049.7
1018.81	16190.7
1017.67	15281.5
1016.54	15106.6
1015.41	15654.5
1014.27	16445.8
1013.14	18255.4
1012	20814.9
1010.87	24477.1
1009.73	31364.8
1008.6	42392.7
1007.46	61180.7
1006.33	93414.9
1005.19	144533
1004.06	211795
1002.92	275271
1001.78	302699
1000.65	268125
999.509	196785
998.371	129590
997.233	85847
996.095	60710.6
994.957	47379.9
993.818	39019.6
992.679	34727.5
991.54	33069.1
990.4	32102.1
989.261	30093.4
988.121	26558.7
986.98	22741.8
985.84	19315.4
984.699	17398.8
983.559	15908.6
982.417	14755.1
981.275	13938.1
980.134	13217.4
978.991	12270.3
977.85	11746.4
976.707	11137.9
975.563	10662.5
974.421	10100.2
973.277	9662.34
972.134	9411.89
970.989	9437.99
969.846	9459.72
968.701	9548.89
967.556	9651.07
966.411	9605.32
965.266	9633.51
964.12	9579.09
962.975	9255.24
961.828	8981.5
960.682	8568.88
959.535	8121.7
958.389	8100.26
957.241	7850.92
956.094	7742.75
954.946	7751.79
953.798	7554.76
952.649	7552.99
951.501	7549.05
950.353	7493.1
949.203	7465.34
948.054	7561.08
946.904	7680.6
945.755	7572.7
944.604	7458.34
943.454	7582.13
942.304	7593.34
941.152	7552.62
940.001	7442.7
938.85	7466.9
937.698	7395.97
936.546	7459.07
935.394	7301.74
934.241	7269.78
933.089	7313.43
931.936	7244.77
930.782	7340.22
929.628	7150.71
928.475	7177.09
927.32	7196.97
926.166	7346.26
925.011	7439.42
923.856	7351.43
922.701	7752.75
921.545	7492.35
920.39	7783.57
919.233	7988.51
918.077	8085.68
916.92	8383.02
915.764	8654.39
914.606	8947.15
913.449	9224.71
912.291	9727.97
911.133	10065.4
909.975	10338.2
908.816	10722.6
907.657	10960.8
906.498	11087.1
905.339	11088.8
904.18	11045.4
903.02	10716.5
901.859	10192.4
900.699	9951.82
899.538	9737.1
898.377	9398.08
897.216	9215.75
896.055	9022.79
894.893	8699.18
893.73	8628.56
892.568	8557.97
891.405	8699.44
890.242	8493.98
889.079	8716.74
887.916	8828.11
886.752	8943.7
885.588	8776.88
884.424	8742.72
883.259	8988.68
882.095	8849.75
880.929	8980.15
879.764	9052.81
878.598	9219.42
877.433	9441.48
876.266	9479.81
875.1	9612.04
873.933	9701.54
872.766	9586.16
871.599	9577.49
870.431	9588.02
869.263	9692.35
868.095	9532.32
866.926	9598.25
865.758	9536.32
864.589	9736.42
863.419	9597.82
862.25	9648.77
861.08	9482.59
859.91	9361.17
858.739	9427.03
857.568	9626.86
856.397	9520.38
855.227	9624.42
854.055	9607.25
852.883	9768.6
851.711	9912.87
850.539	10127.2
849.366	10150.2
848.193	10648.9
847.021	11094.2
845.847	11564.7
844.673	11704.1
843.499	12095.8
842.325	12184.1
841.15	12083.7
839.976	11911.3
838.801	11594.9
837.625	11246.8
836.449	10672.3
835.273	10127.7
834.097	9780.21
832.921	9293.22
831.744	9219.07
830.566	8990.53
829.39	8912.25
828.212	8880.53
827.034	8846.71
825.855	8956.61
824.677	8956.59
823.498	9134.01
822.319	9296.56
821.14	9663.84
819.96	9986.62
818.78	10267
817.601	10661.2
816.42	11093.2
815.239	11607.3
814.059	12205.4
812.877	12712.6
811.695	13086.8
810.514	13344.9
809.331	14093.7
808.149	14288.3
806.966	15053.3
805.783	15584.4
804.6	16613.9
803.416	17762.8
802.232	19310.8
801.049	20580.6
799.864	22169.2
798.68	23460.8
797.494	24329.3
796.31	25033.6
795.124	25004.5
793.938	25019.5
792.752	24667.2
791.565	24472.4
790.379	23799.3
789.191	23178.9
788.005	22418.3
786.817	21343.6
785.629	20466.4
784.441	19256.4
783.253	18275.4
782.064	17389.1
780.875	16480.2
779.687	16049.1
778.497	15658
777.307	15392.7
776.117	15299
774.927	15048.5
773.735	14906.9
772.545	15035
771.354	15307.3
770.162	15255.6
768.971	15502.7
767.778	15914.6
766.586	16213.6
765.394	16418.5
764.2	16723.5
763.007	16815.5
761.813	17239.2
760.62	17368.5
759.426	17412.3
758.231	17224.7
757.037	17097.6
755.842	16922.6
754.646	16483.1
753.451	15937.6
752.256	15534
751.06	15103.5
749.863	14735.7
748.666	14378.4
747.47	14035.8
746.272	13878.6
745.074	13943.9
743.877	13967.5
742.679	13758.4
741.48	13875.6
740.281	13560.7
739.083	13200.2
737.884	12399.8
736.684	11510.4
735.484	10746
734.284	10004.8
733.084	9579.21
731.883	9471.15
730.682	9408.74
729.48	9479.03
728.279	9802.11
727.077	10265.9
725.875	10797.8
724.673	10923.6
723.47	10463.5
722.268	9593.69
721.063	8834.01
719.86	8122.27
718.656	7706.65
717.452	7309.83
716.248	7508.61
715.043	7388.99
713.838	7688.9
712.633	7767.61
711.427	7732.7
710.222	7571.84
709.015	7683.56
707.809	7481.51
706.602	7551.93
705.395	7554.24
704.188	7558.6
702.979	7327.92
701.771	7334.4
700.563	7097.69
699.355	6776.62
698.146	6513.38
696.938	6272.92
695.728	5968.75
694.519	5922.02
693.309	5636.61
692.098	5715.49
690.888	5557.78
689.677	5502.98
688.466	5466.7
687.254	5529.1
686.042	5447.62
684.83	5448.36
683.618	5444.99
682.405	5534.03
681.192	5462.9
679.979	5332.27
678.766	5404.86
677.552	5405.6
676.338	5375.59
675.124	5427.6
673.909	5346.34
672.694	5279.47
671.479	5448.26
670.264	5416.22
669.048	5451.77
667.831	5401.32
666.615	5594.48
665.398	5728.2
664.182	5573.36
662.964	5522.92
661.746	5497.05
660.528	5391.45
659.311	5578.2
658.092	5519.63
656.873	5481.52
655.654	5527.18
654.435	5493.17
653.215	5418.34
651.995	5572.16
650.774	5554.49
649.555	5626.59
648.334	5639.5
647.112	5676.88
645.891	5938.49
644.669	5983.93
643.447	6218.85
642.225	6335.5
641.002	6364.52
639.779	6301.9
638.557	6674.93
637.333	6950.1
636.109	7035.91
634.885	7449.18
633.66	7807.35
632.436	8356.45
631.211	8842.28
629.985	9358.36
628.76	10134.2
627.534	11618.7
626.308	13482.1
625.082	18099.7
623.854	26979.6
622.628	40189.6
621.4	48917.9
620.173	43904.3
618.945	31007
617.717	20408.9
616.488	15434.2
615.26	12788.1
614.03	11290
612.801	9622.4
611.571	8635.99
610.341	8273.56
609.11	8016.55
607.88	7648.38
606.649	7595.95
605.418	7636.58