File: Finalized Code/CNN Models/RAMAN Data MITACs/Bulk Carbon Ring Identification/Copy of PureSoybeanOil.txt
#Wave		#Intensity
2964.05	150392
2961.92	156125
2959.79	159817
2957.65	162273
2955.52	163461
2953.38	164706
2951.25	165828
2949.11	170471
2946.97	176683
2944.83	188237
2942.69	201230
2940.56	214767
2938.42	227140
2936.28	235297
2934.13	240518
2931.99	243567
2929.85	245066
2927.71	245924
2925.56	246668
2923.42	247302
2921.28	248576
2919.13	249917
2916.98	251667
2914.84	254284
2912.69	256837
2910.54	260043
2908.39	263979
2906.25	266800
2904.1	269458
2901.95	272261
2899.8	273550
2897.64	275008
2895.49	274906
2893.34	274580
2891.19	272716
2889.03	266706
2886.88	259313
2884.72	249452
2882.57	238761
2880.41	229954
2878.25	225150
2876.1	221368
2873.94	218585
2871.78	214541
2869.62	209913
2867.46	206495
2865.3	206726
2863.14	212339
2860.98	219017
2858.82	226417
2856.65	235355
2854.49	243171
2852.32	246578
2850.16	241056
2847.99	220139
2845.83	189992
2843.66	159579
2841.49	136151
2839.33	119303
2837.16	108221
2834.99	99427.1
2832.82	93040.1
2830.65	87912.9
2828.48	82739.4
2826.31	78992.8
2824.13	76035.9
2821.96	73376.3
2819.79	71721.8
2817.61	69521.9
2815.44	68027.4
2813.26	66632.2
2811.09	65725.3
2808.91	64618.7
2806.73	63836.4
2804.56	63349.5
2802.38	63021.7
2800.2	62589.1
2798.02	61951
2795.84	62001.9
2793.66	61914.7
2791.48	61011.4
2789.29	60408.7
2787.11	60339
2784.93	59682.1
2782.74	59330
2780.56	58764.9
2778.37	58495.2
2776.19	58101.6
2774	58027
2771.81	57523.3
2769.63	57542.2
2767.44	57508.8
2765.25	57219.5
2763.06	57015.6
2760.87	56797
2758.68	57349.2
2756.49	57289.7
2754.3	57662
2752.1	57848.9
2749.91	58047
2747.72	58365.3
2745.52	58777.6
2743.33	59545.9
2741.13	60297.8
2738.93	61047.1
2736.74	61877.5
2734.54	62951
2732.34	63049.8
2730.14	63935.5
2727.94	63806.4
2725.74	64122.2
2723.54	63991.9
2721.34	63865.2
2719.14	63381.1
2716.94	63281.7
2714.73	62076
2712.53	61803
2710.32	60973.3
2708.12	60284.2
2705.91	60183.5
2703.71	59043.5
2701.5	58689.4
2699.29	58171.9
2697.08	57947.9
2694.88	57905.5
2692.67	57803.4
2690.46	57726.1
2688.24	57923.7
2686.03	57540.2
2683.82	57678
2681.61	57416.3
2679.39	57701.4
2677.18	57513
2674.97	57379.7
2672.75	57131.8
2670.54	56841.3
2668.32	56812.8
2666.1	56823.6
2663.88	56636.8
2661.67	56470.2
2659.45	56249.9
2657.23	55943.4
2655.01	55842.2
2652.79	55460.8
2650.56	55565
2648.34	55749.7
2646.12	55257.7
2643.9	55122.2
2641.67	55096.4
2639.45	54752.8
2637.22	54916.2
2635	54585.1
2632.77	54536
2630.54	54623.3
2628.31	54416.6
2626.08	54118.4
2623.86	53795.8
2621.63	53807.3
2619.4	53908.1
2617.17	54100.3
2614.93	53901.9
2612.7	53431.4
2610.47	53415.1
2608.23	53532.5
2606	53633.1
2603.77	53536.5
2601.53	53575.8
2599.29	53434.7
2597.06	53133.3
2594.82	52986.9
2592.58	53019.6
2590.34	52836.5
2588.1	52634.6
2585.86	52391.7
2583.62	51966.7
2581.38	52099.6
2579.14	52272.4
2576.9	52052.1
2574.65	51713.1
2572.41	51815.9
2570.17	51709
2567.92	51572.3
2565.67	51493.2
2563.43	51707.9
2561.18	51674.3
2558.93	51388.1
2556.69	51387.9
2554.44	51341.1
2552.19	51055.2
2549.94	51430.1
2547.69	51214
2545.43	51125.3
2543.18	51162.6
2540.93	51153.5
2538.68	50850.5
2536.42	50749.8
2534.17	50758.4
2531.91	50604.8
2529.66	50560.5
2527.4	50814.2
2525.14	50493
2522.88	50296.5
2520.62	50370.3
2518.37	50074.9
2516.11	50110.1
2513.84	50129.9
2511.58	50256.5
2509.32	49681.7
2507.06	49943.7
2504.8	49883.2
2502.53	49702.8
2500.27	49518.1
2498	49860.1
2495.74	49842.5
2493.47	49412.9
2491.2	49344.9
2488.94	49706.2
2486.67	49436.2
2484.4	49610.8
2482.13	49458.3
2479.86	49603.1
2477.59	49417.8
2475.32	49525.3
2473.04	49651.3
2470.77	49726.9
2468.5	49408.2
2466.22	49922.8
2463.95	49409.3
2461.67	49692.8
2459.4	49071.3
2457.12	49511.1
2454.84	49512.1
2452.56	49700.1
2450.29	49719.7
2448	49627.8
2445.73	49463.9
2443.44	49612.4
2441.16	49213.9
2438.88	49522.7
2436.6	49552.1
2434.31	49444
2432.03	49626
2429.75	49321.8
2427.46	49480.8
2425.17	49126.7
2422.89	49296.6
2420.6	49428.3
2418.31	49052.7
2416.02	49622.8
2413.73	49306.1
2411.44	49103.8
2409.15	49107
2406.86	48922.2
2404.57	48888.6
2402.28	48766.9
2399.98	48922.2
2397.69	49119.8
2395.4	48792
2393.1	48631.5
2390.8	48915.7
2388.51	48794.2
2386.21	48816.9
2383.91	48652.2
2381.61	48438.8
2379.31	48597
2377.01	48664.2
2374.71	48603.6
2372.41	48646.8
2370.11	48583
2367.81	48445.7
2365.5	48193.8
2363.2	48253.4
2360.9	48268.6
2358.59	48274
2356.29	48300
2353.98	48114.4
2351.67	48227.8
2349.36	48208.4
2347.05	48255.9
2344.74	48334.7
2342.44	48267.8
2340.12	48176.3
2337.81	48062.1
2335.5	48226.9
2333.19	48191.4
2330.88	47993.4
2328.56	47847.1
2326.25	47966.6
2323.93	48143
2321.62	48009.7
2319.3	48040.9
2316.98	48160.2
2314.66	48024.8
2312.34	48141.9
2310.03	47873.5
2307.71	48072
2305.38	48076.3
2303.06	47913.2
2300.74	47974.4
2298.42	48051.5
2296.09	47985
2293.77	47828.6
2291.45	48100.6
2289.12	48119.8
2286.79	48051.2
2284.47	47767.6
2282.14	47953.7
2279.81	47785.7
2277.48	47654.2
2275.15	47692.7
2272.82	48079.5
2270.49	47829.4
2268.16	47963.9
2265.83	47684
2263.5	47709.6
2261.16	47753.3
2258.83	47979.4
2256.49	47817.2
2254.16	47758.4
2251.82	47605.9
2249.48	47224.4
2247.15	47511
2244.81	47528
2242.47	47825
2240.13	47602.4
2237.79	47483.2
2235.45	47164
2233.11	47595.8
2230.76	47761.5
2228.42	47597.7
2226.08	47503
2223.73	47541.1
2221.39	47595.2
2219.04	47396.5
2216.69	46888.2
2214.35	47063.3
2212	47255.2
2209.65	47681.3
2207.3	47218
2204.95	47411.8
2202.6	47496.4
2200.25	47489.9
2197.9	47477
2195.54	47676.9
2193.19	47484.1
2190.84	47528.3
2188.48	47878.1
2186.12	47460.2
2183.77	47727.4
2181.41	47722.9
2179.05	47406.8
2176.7	47498.5
2174.34	47380
2171.98	47183.5
2169.62	47398.5
2167.26	47030.3
2164.89	47169.3
2162.53	47103.8
2160.17	47114.1
2157.8	47131.9
2155.44	47099
2153.07	46958.8
2150.71	46884
2148.34	47196.3
2145.97	46971
2143.61	47078.1
2141.24	47230.3
2138.87	47190.1
2136.5	46933.5
2134.13	47142.3
2131.76	46987.7
2129.38	46995.8
2127.01	47127.8
2124.64	46737.3
2122.26	46846.2
2119.89	46924.6
2117.51	47043.9
2115.13	47104.3
2112.76	46878.8
2110.38	46868.1
2108	47169.4
2105.62	46966
2103.24	46852.7
2100.86	46982.1
2098.48	46981.8
2096.1	46803.8
2093.71	46971.7
2091.33	46835.6
2088.95	46775.8
2086.56	46958.2
2084.18	46967.2
2081.79	46862.5
2079.4	46561.8
2077.02	46971.4
2074.63	46476.8
2072.24	46549.5
2069.85	46465.9
2067.46	46426.1
2065.06	46515.4
2062.67	46517.2
2060.28	46476.3
2057.89	46405.3
2055.49	46723.3
2053.1	46066.8
2050.7	46343.1
2048.31	46095.5
2045.91	46108.8
2043.51	46325.7
2041.11	45929.8
2038.71	46011.6
2036.31	45963.7
2033.91	46002.9
2031.51	45967.4
2029.11	45755.7
2026.71	45936.9
2024.3	45752.3
2021.9	45919.9
2019.49	45668.1
2017.09	45249.7
2014.68	45605.6
2012.28	45521.7
2009.87	45324
2007.46	45402.5
2005.05	45165.7
2002.64	45439.4
2000.23	45379.4
1997.82	45437.1
1995.41	45542.2
1992.99	45093.1
1990.58	45081.7
1988.17	45392
1985.75	45236.2
1983.34	45298.9
1980.92	45188.5
1978.5	44896.8
1976.08	45229.4
1973.67	45285.8
1971.25	44800.9
1968.83	44798.8
1966.4	44939.6
1963.98	44798.7
1961.56	44968.2
1959.14	44724.5
1956.71	44707
1954.29	44729.5
1951.87	44981
1949.44	44842.3
1947.01	44953
1944.59	44874.8
1942.16	44742.4
1939.73	45006.8
1937.3	44709.3
1934.87	44892.6
1932.44	44733.7
1930.01	44886.1
1927.57	44442.7
1925.14	44890.8
1922.71	44976.5
1920.27	44543.7
1917.84	44762.3
1915.4	44776.5
1912.96	44674.1
1910.53	44461.4
1908.09	44473.5
1905.65	44672.5
1903.21	44450.8
1900.77	44502.7
1898.33	44386.2
1895.88	44256.6
1893.44	44715.2
1891	44183
1888.55	44594.5
1886.11	44344.7
1883.66	44336.4
1881.22	44213.1
1878.77	44026.7
1876.32	43916.8
1873.88	43890.3
1871.43	44236.9
1868.97	43925.7
1866.52	43949
1864.07	43601.5
1861.62	43723.4
1859.17	43743.6
1856.71	43664.4
1854.26	43508.2
1851.8	43576.1
1849.35	43692.7
1846.89	43623.7
1844.43	43568.9
1841.97	43432.1
1839.52	43368.3
1837.06	43319.7
1834.6	43284.3
1832.13	43475.5
1829.67	43235.7
1827.21	43371.2
1824.75	43027.5
1822.28	43082.1
1819.82	43471.1
1817.35	43057.9
1814.88	43197.3
1812.42	42858.2
1809.95	43364.7
1807.48	43605.7
1805.01	43147.7
1802.54	43265.6
1800.07	43023.7
1797.6	43331.9
1795.12	42963.2
1792.65	42979.3
1790.18	43177.6
1787.7	43328.4
1785.23	43271.9
1782.75	43120
1780.27	43119.9
1777.8	43083.6
1775.32	43332.6
1772.84	43264.2
1770.36	43418.6
1767.88	43639.2
1765.4	43793.4
1762.91	44095
1760.43	44923.8
1757.95	45648.9
1755.46	46756.3
1752.98	48019.4
1750.49	48640.7
1748	49313.6
1745.52	49073.3
1743.03	48663
1740.54	48033.9
1738.05	47196.2
1735.56	45923.1
1733.06	45433.3
1730.57	44413.3
1728.08	43932.2
1725.59	43372.6
1723.09	43207.5
1720.6	42819.1
1718.1	42896.7
1715.6	42786.8
1713.11	42790.6
1710.61	43116.3
1708.11	42671.6
1705.61	43138.6
1703.11	42733
1700.61	42614.4
1698.1	43049
1695.6	42742.3
1693.1	42655.6
1690.59	42548
1688.09	42640.2
1685.58	42889.4
1683.07	43252.6
1680.57	43519.3
1678.06	43992.3
1675.55	45249.9
1673.04	46366.9
1670.53	48467
1668.02	52374.1
1665.5	58337.3
1662.99	66746.2
1660.48	76079.9
1657.96	79521.2
1655.45	78229.5
1652.93	72198.5
1650.41	65551
1647.9	59297.2
1645.38	54310.8
1642.86	50612.3
1640.34	47923.9
1637.82	46510.4
1635.29	45445.4
1632.77	44301
1630.25	43783
1627.73	43067.1
1625.2	43002.4
1622.68	42565.2
1620.15	42156.7
1617.62	41877.6
1615.09	41541.6
1612.57	41336.6
1610.04	41369.1
1607.51	41174.2
1604.97	41099.4
1602.44	40833.9
1599.91	40384.7
1597.38	40472.4
1594.84	40492.3
1592.31	40332.3
1589.77	40351.2
1587.24	40291.6
1584.7	40126.9
1582.16	40090.9
1579.62	40164.7
1577.08	39779.7
1574.54	40221.1
1572	40044.9
1569.46	40032.4
1566.91	39783
1564.37	39762.8
1561.83	39820.8
1559.28	40018.7
1556.73	39709
1554.19	39690.7
1551.64	39726.2
1549.09	39668.9
1546.54	39678
1543.99	39554.3
1541.44	39792.8
1538.89	39255.3
1536.34	39528.9
1533.79	39760.4
1531.23	39647.5
1528.68	39718.9
1526.12	39475.6
1523.56	39610.3
1521.01	39592.1
1518.45	39833.8
1515.89	39544.9
1513.33	39743.7
1510.77	39956.8
1508.21	39699.3
1505.65	40078.5
1503.08	40072.8
1500.52	39840.7
1497.96	40174.9
1495.39	40696.1
1492.82	41038.5
1490.26	41248.7
1487.69	41691.6
1485.12	42065.3
1482.55	42541.5
1479.98	43957.2
1477.41	45055.3
1474.84	46904.9
1472.27	49012.9
1469.69	51672.9
1467.12	54764.7
1464.54	58404.7
1461.97	61979.6
1459.39	65876.9
1456.81	68285
1454.24	70582.4
1451.66	72850.3
1449.08	74806
1446.5	77821.8
1443.92	81580.4
1441.33	84808.1
1438.75	85085
1436.17	81252.7
1433.58	73203.2
1431	63902
1428.41	56274.1
1425.82	51579.8
1423.23	49024.4
1420.65	47162.2
1418.06	45957.9
1415.47	44690.9
1412.88	42946.1
1410.28	41714.4
1407.69	41309.4
1405.1	41361.7
1402.5	41607.7
1399.91	41618.5
1397.31	41067.3
1394.71	40116.6
1392.12	39613.2
1389.52	39199.1
1386.92	38861
1384.32	39066.1
1381.72	39162.9
1379.11	39003.1
1376.51	39457.6
1373.91	39736.8
1371.3	39924.9
1368.7	39942.9
1366.09	39942.6
1363.48	40045.5
1360.88	39511.5
1358.27	39550.5
1355.66	39449.2
1353.05	39652.2
1350.44	39763.6
1347.83	39996
1345.21	39585.9
1342.6	39915.3
1339.99	40140.8
1337.37	39963.3
1334.76	40520.7
1332.14	41409.9
1329.52	42572.4
1326.9	43970.1
1324.28	45293.6
1321.66	47111.4
1319.04	47842.2
1316.42	48966.6
1313.8	50587.8
1311.17	53347.9
1308.55	56223.8
1305.92	59482
1303.3	62175.9
1300.67	61779.7
1298.04	59818.4
1295.42	56506.5
1292.79	53608.6
1290.16	51683
1287.53	50361.4
1284.89	50548.8
1282.26	51212.6
1279.63	52644.8
1276.99	53968.2
1274.36	55988.1
1271.72	57692.2
1269.08	59477.4
1266.45	59795.3
1263.81	59497.8
1261.17	58852.4
1258.53	56867.3
1255.89	54855.1
1253.24	52420.1
1250.6	49860.4
1247.96	47155.4
1245.31	45265.7
1242.67	43260.4
1240.02	41861.5
1237.38	40696.7
1234.73	39912.6
1232.08	39335.7
1229.43	38583.5
1226.78	38082.6
1224.13	37733.3
1221.47	37364.4
1218.82	37341.1
1216.17	37223.1
1213.51	36508.7
1210.86	36454.8
1208.2	35906.9
1205.54	35704.2
1202.88	35648.7
1200.23	35587.6
1197.57	35384.3
1194.91	35259.7
1192.24	35161.3
1189.58	34792.7
1186.92	34888.1
1184.25	34767.6
1181.59	34477.9
1178.92	34337
1176.26	34070.1
1173.59	33977
1170.92	33864.4
1168.25	33628.6
1165.58	33886.4
1162.91	33727.2
1160.24	33636.2
1157.57	33472.6
1154.89	33369.6
1152.22	33376.5
1149.54	33337.9
1146.87	33492.7
1144.19	33552.6
1141.51	33298.2
1138.83	33204.7
1136.15	33256.2
1133.47	33680.2
1130.79	34109.5
1128.11	34584
1125.43	34987.7
1122.74	35398.5
1120.06	35751.5
1117.37	35899.5
1114.68	36137.2
1112	37053.9
1109.31	37219.7
1106.62	37378.1
1103.93	37595.5
1101.24	38256.1
1098.55	38435.2
1095.85	39298.5
1093.16	40571.6
1090.47	41487.3
1087.77	42557.5
1085.07	43145.9
1082.38	43757.8
1079.68	44376.8
1076.98	44090.2
1074.28	44026.1
1071.58	43550.8
1068.88	42768
1066.18	42879.4
1063.47	42356.1
1060.77	40808.3
1058.06	38977.9
1055.36	37445
1052.65	36323.4
1049.95	36038.4
1047.24	35613.9
1044.53	35252.2
1041.82	35007.4
1039.11	35036.4
1036.39	34712
1033.68	34412.5
1030.97	34500.4
1028.25	34557.1
1025.54	34203.8
1022.82	34242.2
1020.1	34023.9
1017.39	33799.4
1014.67	33505.5
1011.95	33379.2
1009.23	32898.9
1006.5	32735.4
1003.78	32947
1001.06	32706.8
998.334	32457.6
995.609	32349.2
992.883	32345.1
990.156	32606.7
987.428	32817.8
984.699	33523.5
981.969	34689.3
979.238	36170.8
976.508	37563.8
973.775	38624.1
971.043	38566
968.309	37806.6
965.572	36480.6
962.838	35258.2
960.1	34446
957.363	33555.3
954.625	33192.5
951.885	33066.2
949.145	32754.6
946.402	32271.6
943.66	32195.7
940.918	32298.6
938.174	32051.2
935.43	31882.9
932.684	31768.2
929.938	31752.4
927.189	31771
924.441	31678.2
921.691	31667.8
918.941	32216.1
916.189	32397.4
913.438	32000.5
910.686	31979.2
907.932	32108.9
905.176	31817.2
902.42	31417.4
899.664	31727.8
896.906	31449.2
894.148	31613.1
891.389	31702.9
888.629	31800.8
885.867	31994.2
883.105	31606.9
880.344	31824.6
877.58	31791.6
874.814	32073
872.049	31940.9
869.283	31843.2
866.516	31622.2
863.746	31619.9
860.979	31041.3
858.207	30835.1
855.438	30651.6
852.664	30911
849.893	31151.4
847.119	31235.5
844.344	30979.3
841.568	30839.1
838.791	30890.8
836.014	30363.4
833.236	30080.1
830.457	29298.8
827.676	28828.8
824.895	28534.6
822.113	28153.8
819.33	27828.7
816.547	27600.4
813.762	27121.9
810.977	27096.9
808.189	26729.7
805.402	26608.4
802.613	26613.9
799.824	26439.1
797.035	26314.4
794.244	26541.3
791.451	26248.1
788.658	26148.5
785.865	26061.5
783.07	26046.7
780.273	26071.9
777.477	25912
774.68	26145.6
771.881	25762.4
769.082	25912.2
766.281	25644
763.48	25960.9
760.678	25801.3
757.875	25807.9
755.07	25534.8
752.266	25648.9
749.461	25407.1
746.654	25380.1
743.846	25602.3
741.037	25632
738.229	25617.3
735.418	25783.4
732.605	26074.3
729.793	26312.7
726.98	26095.2
724.166	26006
721.352	25937.3
718.535	25502.6
715.717	25246.7
712.9	25227.7
710.08	25104.6
707.262	24977.1
704.441	24701.4
701.619	24430.3
698.797	24416
695.973	24274.8
693.148	24167.2
690.322	24116.9
687.496	24042.9
684.67	24070.2
681.842	23942.5
679.012	23859.8
676.182	23485.9
673.352	23620.6
670.52	23531
667.688	23588.3
664.854	23419.7
662.018	23340.8
659.182	23384.9
656.346	23161.3
653.508	23228.2
650.67	23266.2
647.83	23211.1
644.99	23252.6
642.148	23230
639.307	23153.1
636.463	23146.3
633.619	23126.4
630.775	23141.5
627.928	23072.6
625.082	23139.3
622.234	23317.9
619.385	23135.4
616.535	23333.1
613.686	23411.9
610.834	23643.4
607.98	23434.8
605.127	23523.9
602.273	23732.5
599.418	23567.7
596.561	23632.2
593.703	23441.4
590.846	23474.6
587.986	23215.1
585.127	23022
582.266	23017
579.402	23019
576.541	23040.9
573.676	23019.4
570.811	22867.5
567.945	22796.5
565.078	22786.4
562.211	22817
559.342	22707.9
556.473	22419.3
553.602	22635.6
550.73	22406.2
547.857	22325.1
544.984	22454.6
542.111	22529.5
539.234	22482.2
536.359	22694.6
533.482	22649.9
530.604	22510.9
527.725	22622.8
524.844	22545.3
521.963	22550.8
519.082	22380
516.199	22603.2
513.314	22483.5
510.43	22353.5
507.545	22556.6
504.658	22352.5
501.77	22333.9
498.881	22243.7
495.992	22302.7
493.102	22324.6
490.209	22275.9
487.316	22214.3
484.424	22144.1
481.529	22315.7
478.633	22154.4
475.738	22178
472.84	22059.8
469.941	22085.1
467.043	22064
464.143	22120.3
461.242	22119.8
458.34	21929.7
455.436	21931
452.531	21802.9
449.627	21899.4
446.721	21848.4
443.814	21634.8
440.906	21696.9
437.998	21654.7
435.088	21692.8
432.178	21619.8
429.266	21531.4
426.354	21655.1
423.439	21418