File: Finalized Code/Tuned Standard Models/RAMAN Data MITACs/ESMA/tcnpowder/Raw/Raw(3).txt
#Wave		#Intensity
1634.03	-11.7567
1633.03	14.4251
1632.04	3.432451
1631.04	20.2048
1630.04	7.315973
1629.04	-35.2192
1628.04	7.332226
1627.05	-14.6968
1626.05	15.8898
1625.05	16.8016
1624.05	47.857
1623.05	101.554
1622.05	195.305
1621.05	172.182
1620.05	161.727
1619.05	156.457
1618.05	124.003
1617.05	148.983
1616.05	134.326
1615.05	139.747
1614.04	195.067
1613.04	183.397
1612.04	216.628
1611.04	272.36
1610.04	338.151
1609.04	441.313
1608.03	542.079
1607.03	501.391
1606.03	460.84
1605.02	425.386
1604.02	506.691
1603.02	526.041
1602.01	622.381
1601.01	845.256
1600	1206.98
1599	1749.61
1598	2254.91
1596.99	2346.27
1595.99	1979.35
1594.98	1367.44
1593.98	1038.16
1592.97	778.406
1591.96	553.478
1590.96	440.069
1589.95	433.154
1588.94	394.135
1587.94	404.645
1586.93	387.995
1585.92	499.949
1584.92	725.593
1583.91	1138.99
1582.9	1530
1581.89	1787.5
1580.88	1713.99
1579.88	1497.34
1578.87	1189.46
1577.86	975.515
1576.85	929.474
1575.84	841.532
1574.83	714.179
1573.82	552.369
1572.81	427.621
1571.8	293.076
1570.79	202.957
1569.78	152.305
1568.77	163.264
1567.76	139.742
1566.75	96.5345
1565.74	109.967
1564.72	108.627
1563.71	65.4521
1562.7	108.403
1561.69	77.5387
1560.67	36.8461
1559.66	30.5865
1558.65	19.4059
1557.64	32.7999
1556.62	11.7788
1555.61	5.495454
1554.59	11.4869
1553.58	39.5638
1552.57	-6.036431
1551.55	-7.446784
1550.54	-18.6864
1549.52	16.682
1548.51	-9.304026
1547.49	-0.959211
1546.48	-24.5107
1545.46	-23.5517
1544.45	-12.8069
1543.43	5.267672
1542.41	-18.3308
1541.4	11.9501
1540.38	3.017691
1539.36	11.2102
1538.35	26.7235
1537.33	7.949216
1536.31	-15.7299
1535.29	36.4178
1534.27	-14.199
1533.26	28.1071
1532.24	38.5937
1531.22	2.615274
1530.2	-1.599042
1529.18	23.488
1528.16	-2.752260
1527.14	14.9583
1526.12	15.5497
1525.1	25.8859
1524.08	28.8766
1523.06	5.004948
1522.04	-4.238497
1521.02	1.137622
1520	8.930188
1518.98	16.7007
1517.96	-9.676975
1516.93	24.8636
1515.91	15.5137
1514.89	15.8928
1513.87	11.3826
1512.85	28.771
1511.82	41.2653
1510.8	31.8306
1509.78	78.3517
1508.75	51.8478
1507.73	93.4456
1506.71	98.5305
1505.68	178.97
1504.66	188.863
1503.63	189.014
1502.61	152.702
1501.58	147.971
1500.56	116.509
1499.53	87.4742
1498.51	102.137
1497.48	39.1059
1496.45	65.8775
1495.43	63.5089
1494.4	48.9988
1493.38	49.0328
1492.35	49.0536
1491.32	3.001914
1490.29	46.6334
1489.27	53.8866
1488.24	39.3209
1487.21	53.8154
1486.18	10.1733
1485.15	46.4354
1484.12	7.632722
1483.1	14.8176
1482.07	5.052300
1481.04	21.8909
1480.01	41.1313
1478.98	19.2476
1477.95	23.9568
1476.92	33.4893
1475.89	28.5104
1474.86	50.1011
1473.83	20.9499
1472.79	-5.781666
1471.76	49.582
1470.73	30.083
1469.7	22.6526
1468.67	-4.084569
1467.64	5.369495
1466.6	-6.893750
1465.57	4.956326
1464.54	-12.1346
1463.51	40.6767
1462.47	-2.933203
1461.44	-10.3893
1460.41	20.6942
1459.37	1.185659
1458.34	-3.871893
1457.3	29.5853
1456.27	-16.3989
1455.23	26.6647
1454.2	-7.277134
1453.16	14.1127
1452.13	-2.984988
1451.09	18.3895
1450.06	-13.129
1449.02	-23.0077
1447.98	-8.857416
1446.95	2.882588
1445.91	7.411221
1444.87	11.9362
1443.84	-0.346415
1442.8	4.175599
1441.76	-3.303082
1440.72	22.8076
1439.68	-20.6523
1438.65	5.449713
1437.61	-26.0014
1436.57	-2.307055
1435.53	-0.192029
1434.49	-19.6423
1433.45	-0.755817
1432.41	-17.8024
1431.37	3.470769
1430.33	-13.5686
1429.29	10.0886
1428.25	14.5929
1427.21	-14.3985
1426.17	4.462161
1425.13	42.4471
1424.09	51.7256
1423.04	32.3166
1422	46.3753
1420.96	55.6506
1419.92	60.1452
1418.88	28.814
1417.83	14.2124
1416.79	25.8794
1415.75	8.900864
1414.7	3.862604
1413.66	25.0721
1412.62	22.4212
1411.57	10.2339
1410.53	2.822227
1409.48	12.1017
1408.44	-11.9867
1407.39	6.826617
1406.35	32.7805
1405.3	3.945054
1404.26	25.1297
1403.21	24.8807
1402.16	-8.689438
1401.12	14.8696
1400.07	-11.5426
1399.02	23.904
1397.98	49.8246
1396.93	11.5394
1395.88	20.8153
1394.83	25.3357
1393.79	96.3876
1392.74	169.787
1391.69	195.654
1390.64	112.28
1389.59	74.0517
1388.54	61.9506
1387.5	35.6183
1386.45	14.0439
1385.4	23.3172
1384.35	37.3313
1383.3	25.2596
1382.25	-8.140070
1381.19	12.9864
1380.14	3.301876
1379.09	-4.008002
1378.04	10.0029
1376.99	5.065602
1375.94	11.969
1374.89	-16.6338
1373.83	2.106189
1372.78	-2.820187
1371.73	-12.4741
1370.68	13.3511
1369.62	-19.9439
1368.57	-3.581794
1367.52	-3.769421
1366.46	-3.956016
1365.41	12.395
1364.35	31.1016
1363.3	7.296683
1362.25	16.5545
1361.19	42.3313
1360.13	18.5413
1359.08	-9.956580
1358.02	22.8875
1356.97	27.4183
1355.91	10.7274
1354.86	19.9742
1353.8	38.6444
1352.74	26.6753
1351.69	38.2693
1350.63	14.5296
1349.57	49.6688
1348.51	56.5421
1347.46	86.9498
1346.4	74.9863
1345.34	70.0861
1344.28	41.6658
1343.22	48.5328
1342.16	15.4267
1341.1	8.192003
1340.04	10.3608
1338.98	14.878
1337.92	31.1385
1336.86	-1.929992
1335.8	14.3262
1334.74	0.055643
1333.68	30.386
1332.62	11.4237
1331.56	1.853314
1330.5	15.7424
1329.44	1.483738
1328.37	-3.391192
1327.31	5.799518
1326.25	5.611190
1325.19	-3.950118
1324.12	-20.5359
1323.06	-4.326880
1322	-23.2486
1320.93	-16.4121
1319.87	4.463655
1318.8	-28.4909
1317.74	-5.284261
1316.68	-3.139623
1315.61	-24.3818
1314.55	-5.870418
1313.48	12.632
1312.42	3.081575
1311.35	0.543394
1310.28	5.013142
1309.22	-34.8936
1308.15	2.268423
1307.08	-4.940845
1306.02	-5.146577
1304.95	-12.3536
1303.88	15.435
1302.82	-3.437914
1301.75	-19.9717
1300.68	21.7848
1299.61	19.2354
1298.54	23.677
1297.47	7.146818
1296.41	13.916
1295.34	6.707998
1294.27	13.472
1293.2	-7.701977
1292.13	43.2788
1291.06	52.3537
1289.99	54.4446
1288.92	70.4884
1287.85	160.933
1286.77	221.115
1285.7	276.621
1284.63	350.693
1283.56	320.184
1282.49	264.137
1281.42	205.791
1280.34	242.661
1279.27	216.841
1278.2	272.257
1277.12	299.805
1276.05	420.128
1274.98	487.057
1273.9	642.066
1272.83	984.779
1271.75	1427
1270.68	1878.3
1269.61	1998.12
1268.53	1529.57
1267.46	1047.34
1266.38	732.014
1265.3	611.252
1264.23	481.286
1263.15	476.312
1262.08	390.381
1261	353.052
1259.92	308.802
1258.84	324.674
1257.77	407.561
1256.69	377.192
1255.61	291.395
1254.53	228.732
1253.46	182.26
1252.38	175.053
1251.3	177.083
1250.22	156.036
1249.14	153.456
1248.06	107.053
1246.98	92.9557
1245.9	111.142
1244.82	103.966
1243.74	82.9673
1242.66	105.754
1241.58	117.015
1240.5	137.483
1239.41	144.129
1238.33	178.396
1237.25	283.995
1236.17	350.432
1235.09	391.537
1234	503.923
1232.92	632.356
1231.84	749.241
1230.75	771.839
1229.67	668.044
1228.59	548.215
1227.5	522.613
1226.42	575.102
1225.33	634.457
1224.25	700.674
1223.16	966.518
1222.08	1154.24
1220.99	1181.31
1219.91	1038.66
1218.82	854.804
1217.74	677.909
1216.65	514.846
1215.56	399.976
1214.48	342.429
1213.39	252.846
1212.3	209.102
1211.21	140.197
1210.12	123.968
1209.04	96.308
1207.95	52.6485
1206.86	45.6079
1205.77	52.2942
1204.68	54.408
1203.59	8.523305
1202.5	24.364
1201.41	35.6317
1200.32	62.8874
1199.23	35.3249
1198.14	10.0614
1197.05	35.0325
1195.96	23.4807
1194.87	30.1915
1193.78	39.1843
1192.69	13.9664
1191.59	70.8505
1190.5	36.5257
1189.41	81.9915
1188.32	52.2448
1187.22	118.198
1186.13	147.684
1185.04	220.427
1183.94	304.525
1182.85	304.372
1181.75	354.288
1180.66	233.551
1179.57	231.152
1178.47	192.373
1177.38	137.7
1176.28	114.88
1175.18	135.253
1174.09	121.541
1172.99	128.283
1171.9	98.6899
1170.8	80.4671
1169.7	53.1768
1168.61	41.7901
1167.51	37.2204
1166.41	37.1945
1165.31	3.152456
1164.21	21.2838
1163.12	5.406205
1162.02	-24.0588
1160.92	-14.9835
1159.82	-14.9696
1158.72	-5.890862
1157.62	19.04
1156.52	14.5326
1155.42	-5.812716
1154.32	3.274783
1153.22	12.363
1152.12	50.8575
1151.02	50.8946
1149.92	98.4166
1148.82	204.694
1147.71	401.327
1146.61	559.466
1145.51	613.627
1144.41	399.015
1143.3	270.304
1142.2	231.953
1141.1	202.651
1139.99	168.854
1138.89	202.754
1137.79	108.085
1136.68	58.5615
1135.58	33.8626
1134.47	36.2259
1133.37	29.579
1132.26	-10.8539
1131.16	43.3354
1130.05	16.4375
1128.95	0.812489
1127.84	57.2263
1126.73	48.3585
1125.63	48.4982
1124.52	73.3847
1123.41	96.0152
1122.3	100.653
1121.2	165.983
1120.09	163.869
1118.98	197.708
1117.87	195.594
1116.76	254.122
1115.65	368.759
1114.54	510.286
1113.43	739.28
1112.33	1165.63
1111.21	1490.84
1110.11	1468.27
1108.99	1165.44
1107.88	813.43
1106.77	647.604
1105.66	672.319
1104.55	925.53
1103.44	1232.38
1102.33	1252.48
1101.21	954.67
1100.1	623.424
1098.99	444.494
1097.88	288.019
1096.76	254.636
1095.65	163.129
1094.54	143.208
1093.42	125.533
1092.31	154.796
1091.19	190.75
1090.08	242.325
1088.96	336.309
1087.85	481.603
1086.73	767.458
1085.62	1367.85
1084.5	1961.28
1083.38	2264.45
1082.27	1675.43
1081.15	1044.32
1080.03	709.968
1078.92	491.656
1077.8	375.937
1076.68	311.506
1075.56	260.467
1074.45	274.023
1073.33	194.077
1072.21	178.708
1071.09	172.248
1069.97	132.421
1068.85	141.542
1067.73	110.633
1066.61	104.192
1065.49	148.872
1064.37	95.7602
1063.25	122.648
1062.13	98.4376
1061.01	114.207
1059.88	220.99
1058.76	374.333
1057.64	669.623
1056.52	689.679
1055.39	450.216
1054.27	281.821
1053.15	151.189
1052.03	71.5945
1050.9	100.618
1049.78	78.6694
1048.65	36.7934
1047.53	54.7254
1046.41	37.2224
1045.28	37.4326
1044.15	15.5102
1043.03	31.2065
1041.9	13.7132
1040.78	0.647436
1039.65	-3.571942
1038.53	18.7325
1037.4	-7.595528
1036.27	23.5302
1035.14	19.2951
1034.02	-4.818179
1032.89	-20.0926
1031.76	-13.29
1030.63	-19.7363
1029.5	2.499560
1028.38	4.867546
1027.25	5.024437
1026.12	-32.3068
1024.99	-10.1068
1023.86	7.670329
1022.73	1.197061
1021.6	7.939109
1020.47	16.8751
1019.34	10.3888
1018.2	45.7262
1017.07	12.815
1015.94	12.9189
1014.81	15.2169
1013.68	10.9101
1012.54	8.798451
1011.41	-2.111534
1010.28	-13.0225
1009.15	-1.961112
1008.01	4.695488
1006.88	13.5391
1005.75	7.001672
1004.61	11.4375
1003.48	-21.447
1002.34	11.5065
1001.21	11.5311
1000.07	-3.803905
998.936	4.982209
997.8	-12.55
996.664	11.563
995.527	4.980142
994.391	-3.797445
993.254	13.7054
992.117	-8.222805
990.979	35.5302
989.842	24.5367
988.704	24.4824
987.566	35.3598
986.428	22.165
985.289	11.1558
984.15	2.330641
983.011	-15.2409
981.871	19.6341
980.731	8.606164
979.592	-15.5295
978.451	-15.6406
977.311	-0.476531
976.17	-22.4332
975.029	5.803743
973.888	1.294342
972.746	7.685552
971.604	18.4277
970.462	0.814543
969.32	-23.337
968.178	6.994872
967.034	-10.6262
965.892	-10.821
964.748	-2.312660
963.604	-2.524513
962.46	3.786123
961.316	-2.970569
960.172	-7.556085
959.026	5.254223
957.882	0.654029
956.736	-21.3449
955.591	-4.215231
954.445	-4.486047
953.299	6.098978
952.152	44.9097
951.006	20.7176
949.859	-7.812809
948.712	11.4166
947.564	-1.921948
946.417	10.7741
945.27	-4.741295
944.121	1.429483
942.973	5.422371
941.824	24.5799
940.675	74.0611
939.525	110.513
938.376	172.934
937.227	101.053
936.076	91.9858
934.926	119.715
933.775	99.8143
932.624	34.4811
931.474	10.2711
930.322	-3.121223
929.17	-1.379034
928.019	-14.7744
926.866	-17.3642
925.714	-6.995195
924.561	7.683132
923.408	-10.0441
922.255	4.617064
921.101	21.4242
919.947	-2.784452
918.793	20.4789
917.639	11.3705
916.484	41.0793
915.329	51.3647
914.174	57.3294
913.019	56.8216
911.863	97.2459
910.707	116.106
909.551	130.646
908.395	95.6556
907.237	73.5921
906.08	53.687
904.923	5.817666
903.766	7.440577
902.607	-5.994831
901.449	23.573
900.291	38.0773
899.133	5.293300
897.974	-14.5877
896.814	-10.834
895.655	12.2427
894.495	15.9826
893.335	30.4508
892.175	53.4941
891.015	55.0694
889.854	82.3815
888.692	96.812
887.531	136.962
886.369	104.212
885.207	80.0487
884.045	21.6153
882.883	10.3319
881.72	5.476682
880.557	24.1737
879.394	34.2994
878.229	-2.660105
877.066	7.466197
875.902	11.1702
874.737	14.8718
873.573	14.2963
872.408	11.5834
871.243	40.9266
870.077	74.529
868.911	133.748
867.745	135.282
866.579	177.381
865.413	285.629
864.246	562.41
863.079	851.862
861.911	1043.06
860.743	991.078
859.576	700.34
858.407	480.078
857.239	330.243
856.07	267.829
854.901	186.277
853.731	60.0468
852.562	55.229
851.393	35.5167
850.223	5.176941
849.052	19.5303
847.881	-6.531731
846.71	-11.3138
845.539	-24.5939
844.367	15.2712
843.195	-4.376842
842.023	-13.3897
840.852	9.464653
839.679	21.6947
838.506	36.0461
837.332	22.8031
836.159	39.2781
834.985	40.8994
833.812	29.7991
832.637	1.744967
831.462	69.1055
830.287	72.8564
829.112	59.6592
827.937	78.2494
826.762	124.369
825.585	142.946
824.409	261.014
823.232	321.889
822.056	628.186
820.879	1114.16
819.701	1168.46
818.523	698.363
817.346	313.053
816.168	187.882
814.989	86.0186
813.811	68.7057
812.632	131.66
811.452	175.588
810.272	177.283
809.093	67.1307
807.912	35.1041
806.732	49.5064
805.552	80.7794
804.37	86.7427
803.189	136.976
802.008	174.548
800.826	231.07
799.644	424.489
798.461	657.836
797.278	1215.31
796.096	2098.79
794.912	2558.87
793.729	2278.16
792.545	1526.42
791.361	949.59
790.177	566.46
788.992	345.367
787.808	271.485
786.622	189.24
785.437	155.351
784.251	87.8863
783.064	79.2435
781.879	39.1275
780.691	28.4147
779.505	19.8115
778.317	15.4134
777.13	8.926716
775.942	0.352939
774.755	-18.6902
773.566	-4.191417
772.378	-19.0225
771.188	-38.0295
770	-2.579113
768.811	-2.728263
767.62	-2.871663
766.431	13.7303
765.24	42.8816
764.05	9.281138
762.858	30.0667
761.668	36.2146
760.477	19.3753
759.284	46.4276
758.093	54.6716
756.9	90.0664
755.708	156.768
754.515	261.018
753.322	511.309
752.129	869.981
750.935	1207.63
749.741	1313.63
748.547	1060.97
747.352	568.721
746.157	299.697
744.962	193.315
743.767	132.814
742.571	70.262
741.375	47.3012
740.179	36.8436
738.982	55.5279
737.785	15.9524
736.588	20.0785
735.391	22.1258
734.193	32.4906
732.995	26.2248
731.797	13.7303
730.599	-7.066251
729.399	-11.2348
728.2	-11.2466
727.001	9.503371
725.801	24.0184
724.602	1.177369
723.401	26.0625
722.2	15.6784
720.999	57.1383
719.799	63.3375
718.597	86.1147
717.396	106.809
716.193	152.353
714.991	191.661
713.788	208.175
712.586	189.49
711.383	261.874
710.179	317.67
708.976	406.536
707.771	590.49
706.566	890.139
705.362	1832.5
704.157	3720.91
702.952	5802.62
701.747	5231.11
700.541	3057.36
699.335	1753.85
698.129	1200.24
696.922	896.579
695.715	803.503
694.508	526.897
693.301	355.59
692.093	217.348
690.885	161.616
689.676	151.243
688.468	144.991
687.259	81.0708
686.049	72.7752
684.84	113.888
683.63	64.4203
682.42	113.741
681.209	88.9767
679.999	134.148
678.788	113.498
677.576	94.9096
676.365	127.707
675.153	135.829
673.94	141.89
672.729	143.838
671.516	207.378
670.303	287.306
669.089	289.207
667.876	319.829
666.662	258.128
665.447	237.469
664.233	225.017
663.019	220.767
661.803	181.679
660.588	193.826
659.372	134.275
658.156	103.419
656.94	119.663
655.724	94.9603
654.507	172.582
653.289	186.744
652.072	464.741
650.854	936.859
649.637	1302.44
648.418	1019.96
647.199	559.835
645.98	273.576
644.762	140.629
643.542	66.9581
642.322	107.638
641.102	91.1537
639.882	42.0308
638.661	7.210356
637.44	11.1549
636.219	6.941979
634.997	14.9618
633.775	-15.7419
632.554	-15.8688
631.331	12.5222
630.108	22.5729
628.885	-12.1704
627.662	38.5937
626.438	24.2167
625.214	11.8834
623.99	-6.543236
622.766	-6.656782
621.541	1.364833
620.315	5.321005
619.09	-0.880996
617.864	-13.1705
616.639	5.015603
615.412	0.861696
614.186	-5.315293
612.959	25.0477
611.731	-3.440924
610.504	14.747
609.276	36.9883
608.048	8.535833
606.82	18.6185
605.591	-7.775368
604.362	-11.862
603.133	-1.759791
601.903	-7.855601
600.674	32.6263
599.443	32.6141
598.213	67.0126
596.982	81.1717
595.751	58.925
594.52	75.1198
593.288	143.88
592.057	156.024
590.824	307.6
589.592	455.072
588.358	463.122
587.126	386.37
585.893	255.159
584.658	271.356
583.425	245.182
582.19	277.533
580.955	338.113
579.721	386.577
578.485	433.012
577.25	535.864
576.014	533.906
574.777	415.126
573.541	314.538
572.305	256.289
571.067	206.13
569.83	184.178
568.593	176.328
567.354	180.56
566.116	114.414
564.878	102.59
563.639	92.788
562.4	93.0441
561.16	79.2431
559.921	53.4021
558.681	51.6736
557.44	43.9261
556.199	64.2828
554.959	52.5255
553.718	84.9068
552.476	99.2209
551.234	85.4538
549.992	121.804
548.749	202.221
547.507	250.533
546.264	308.828
545.021	256.94
543.776	167.023
542.532	115.166
541.288	75.3243
540.044	25.4794
538.799	5.640041
537.554	-4.215378
536.309	9.897736
535.062	-0.010543
533.816	8.037528
532.57	8.054790
531.323	2.041105
530.076	13.959
528.829	-12.105
527.581	-14.2563
526.334	9.478965
525.085	-0.768010
523.837	24.8264
522.588	-9.475036
521.339	-17.9172
520.09	7.447661
518.84	12.7939
517.59	-13.8205
516.339	-4.668961
515.089	22.2989
513.838	3.367408
512.586	34.0833
511.335	-0.986397
510.083	7.594361
508.831	6.096696
507.578	8.435745
506.325	-5.273707
505.072	22.5977
503.819	8.573884
502.565	12.2587
501.312	-31.8944
500.057	-16.6632
498.803	-9.575745
497.548	7.217414
496.292	33.6983
495.037	40.1058
493.781	18.5073