File: Finalized Code/Tuned Standard Models/RAMAN Data MITACs/ESMA/tcnpowder/Raw/Raw(2).txt
#Wave		#Intensity
1634.03	-0.813631
1633.03	6.303084
1632.04	6.056654
1631.04	15.9371
1630.04	-21.46
1629.04	13.6348
1628.04	-23.488
1627.05	6.856646
1626.05	-0.089723
1625.05	5.544670
1624.05	8.795870
1623.05	22.1188
1622.05	35.5381
1621.05	81.4272
1620.05	80.0848
1619.05	51.4522
1618.05	55.2749
1617.05	51.7178
1616.05	75.6096
1615.05	49.8247
1614.04	103.703
1613.04	90.5035
1612.04	74.8934
1611.04	111.547
1610.04	143.28
1609.04	172.577
1608.03	189.503
1607.03	136.951
1606.03	191.227
1605.02	185.962
1604.02	188.193
1603.02	197.914
1602.01	262.247
1601.01	400.995
1600	586.837
1599	837.091
1598	1037.71
1596.99	1015.26
1595.99	841.741
1594.98	598.969
1593.98	420.714
1592.97	319.312
1591.96	245.208
1590.96	193.433
1589.95	198.61
1588.94	164.228
1587.94	171.925
1586.93	189.528
1585.92	268.946
1584.92	331.046
1583.91	521.636
1582.9	677.57
1581.89	781.578
1580.88	767.013
1579.88	616.665
1578.87	523.167
1577.86	464.27
1576.85	390.599
1575.84	376.175
1574.83	312.432
1573.82	236.392
1572.81	177.645
1571.8	133.716
1570.79	79.9512
1569.78	85.3441
1568.77	71.0289
1567.76	103.515
1566.75	86.74
1565.74	62.5858
1564.72	26.1344
1563.71	38.9124
1562.7	49.2228
1561.69	32.4684
1560.67	35.392
1559.66	48.1456
1558.65	21.5585
1557.64	-2.563790
1556.62	27.3769
1555.61	-4.116994
1554.59	-3.672526
1553.58	6.587925
1552.57	9.472627
1551.55	-9.741120
1550.54	5.403518
1549.52	-4.000612
1548.51	-8.501392
1547.49	28.6852
1546.48	-12.6157
1545.46	34.3473
1544.45	5.302407
1543.43	-4.134562
1542.41	-3.775480
1541.4	6.372985
1540.38	4.264437
1539.36	9.493956
1538.35	2.473219
1537.33	17.4735
1536.31	22.6717
1535.29	3.395893
1534.27	6.132268
1533.26	8.858937
1532.24	18.9102
1531.22	9.394669
1530.2	4.762079
1529.18	-9.649701
1528.16	12.5768
1527.14	-11.6162
1526.12	17.9095
1525.1	-16.0558
1524.08	8.560781
1523.06	23.3982
1522.04	-8.131516
1521.02	-0.630115
1520	9.298567
1518.98	-5.165397
1517.96	-7.443217
1516.93	-2.416616
1515.91	-9.582211
1514.89	0.299731
1513.87	-11.7492
1512.85	2.984527
1511.82	25.0085
1510.8	20.2425
1509.78	30.0724
1508.75	42.3244
1507.73	35.1052
1506.71	52.2017
1505.68	93.5985
1504.66	103.37
1503.63	74.246
1502.61	64.567
1501.58	79.1796
1500.56	45.204
1499.53	52.5184
1498.51	37.9744
1497.48	35.5676
1496.45	18.5962
1495.43	30.742
1494.4	-0.785275
1493.38	25.9014
1492.35	4.078193
1491.32	4.077581
1490.29	23.4622
1489.27	30.7187
1488.24	11.3191
1487.21	-5.654046
1486.18	23.3873
1485.15	23.3595
1484.12	6.384080
1483.1	18.4537
1482.07	18.4172
1481.04	8.701531
1480.01	8.661327
1478.98	1.364341
1477.95	18.2431
1476.92	37.5292
1475.89	27.8069
1474.86	6.006516
1473.83	20.4454
1472.79	30.0463
1471.76	8.253476
1470.73	15.4354
1469.7	-13.5888
1468.67	8.069036
1467.64	-1.644883
1466.6	0.703382
1465.57	12.695
1464.54	2.982651
1463.51	2.914898
1462.47	7.665867
1461.44	-6.860519
1460.41	2.706688
1459.37	7.452581
1458.34	-14.2897
1457.3	-4.728654
1456.27	2.421200
1455.23	14.3803
1454.2	19.1168
1453.16	-19.4429
1452.13	-14.7014
1451.09	2.059141
1450.06	4.390441
1449.02	9.124078
1447.98	1.842548
1446.95	-34.2616
1445.91	-15.112
1444.87	6.430794
1443.84	3.958637
1442.8	1.487950
1441.76	-12.9791
1440.72	1.349580
1439.68	3.679887
1438.65	-5.980506
1437.61	-6.045916
1436.57	5.874698
1435.53	8.204789
1434.49	10.5346
1433.45	5.677740
1432.41	-11.1513
1431.37	-13.6053
1430.33	3.094392
1429.29	7.820463
1428.25	-6.598228
1427.21	12.4844
1426.17	-23.4548
1425.13	17.148
1424.09	12.3069
1423.04	21.8112
1422	0.243831
1420.96	24.0849
1419.92	16.8613
1418.88	26.3603
1417.83	40.6318
1416.79	23.8627
1415.75	-2.445614
1414.7	21.3709
1413.66	-4.923872
1412.62	4.572970
1411.57	9.297029
1410.53	18.7885
1409.48	-17.015
1408.44	28.2285
1407.39	21.0329
1406.35	-0.452282
1405.3	23.3253
1404.26	1.850248
1403.21	23.2378
1402.16	6.533673
1401.12	4.115452
1400.07	18.3531
1399.02	20.6918
1397.98	11.1393
1396.93	-10.2969
1395.88	3.933598
1394.83	11.0285
1393.79	53.7627
1392.74	41.8397
1391.69	60.7985
1390.64	58.378
1389.59	51.2106
1388.54	15.5636
1387.5	20.2741
1386.45	13.1199
1385.4	-1.147322
1384.35	-5.922259
1383.3	-10.6952
1382.25	10.6096
1381.19	12.9449
1380.14	3.431649
1379.09	-8.446767
1378.04	-3.740973
1376.99	0.962502
1375.94	5.663586
1374.89	-6.206457
1373.83	-6.239593
1372.78	5.556466
1371.73	12.616
1370.68	0.752656
1369.62	7.809015
1368.57	12.4977
1367.52	24.2739
1366.46	0.600954
1365.41	-6.525979
1364.35	7.606056
1363.3	14.647
1362.25	-11.3678
1361.19	26.3566
1360.13	26.3065
1359.08	2.662116
1358.02	14.409
1356.97	-9.224992
1355.91	16.6637
1354.86	16.6099
1353.8	14.1979
1352.74	25.9233
1351.69	16.4404
1350.63	11.6706
1349.57	16.3204
1348.51	44.5091
1347.46	25.6095
1346.4	30.2487
1345.34	32.5315
1344.28	44.2205
1343.22	18.2757
1342.16	11.1498
1341.1	29.8827
1340.04	-10.1485
1338.98	-5.520648
1337.92	-7.944086
1336.86	22.5126
1335.8	17.7322
1334.74	-10.5243
1333.68	5.824716
1332.62	3.391746
1331.56	-1.388277
1330.5	-1.477052
1329.44	-6.258006
1328.37	5.373105
1327.31	19.3411
1326.25	-18.2574
1325.19	-13.6668
1324.12	-13.7655
1323.06	-2.156074
1322	7.104698
1320.93	4.654002
1319.87	2.202261
1318.8	-4.930718
1317.74	-7.383813
1316.68	-2.821079
1315.61	11.0914
1314.55	1.615720
1313.48	8.504312
1312.42	-14.9929
1311.35	-15.1177
1310.28	-10.5728
1309.22	0.974216
1308.15	14.8489
1307.08	12.3743
1306.02	30.9036
1304.95	2.754593
1303.88	25.9395
1302.82	2.463960
1301.75	27.9661
1300.68	34.8039
1299.61	36.9748
1298.54	34.4818
1297.47	-0.630267
1296.41	13.187
1295.34	15.3519
1294.27	33.8121
1293.2	10.3613
1292.13	12.519
1291.06	54.2295
1289.99	28.4569
1288.92	53.8611
1287.85	51.3488
1286.77	148.801
1285.7	197.399
1284.63	180.908
1283.56	203.918
1282.49	131.684
1281.42	159.335
1280.34	180.007
1279.27	179.778
1278.2	179.546
1277.12	211.797
1276.05	188.358
1274.98	253.057
1273.9	292.221
1272.83	472.776
1271.75	708.874
1270.68	907.793
1269.61	891.173
1268.53	640.627
1267.46	457.343
1266.38	329.702
1265.3	280.813
1264.23	255.085
1263.15	176.154
1262.08	162.023
1261	154.835
1259.92	159.21
1258.84	186.699
1257.77	223.418
1256.69	197.735
1255.61	155.891
1254.53	72.4929
1253.46	93.0384
1252.38	72.0199
1251.3	97.1711
1250.22	92.3126
1249.14	128.982
1248.06	52.6157
1246.98	50.0747
1245.9	59.062
1244.82	42.6901
1243.74	33.2384
1242.66	30.7029
1241.58	48.8995
1240.5	64.7852
1239.41	66.8488
1238.33	91.9315
1237.25	93.9884
1236.17	142.064
1235.09	141.809
1234	263.451
1232.92	281.565
1231.84	347.949
1230.75	322.368
1229.67	266.925
1228.59	220.697
1227.5	225.022
1226.42	188.01
1225.33	213.004
1224.25	311.441
1223.16	382.296
1222.08	411.822
1220.99	461.981
1219.91	392.864
1218.82	293.972
1217.74	243.264
1216.65	215.498
1215.56	116.714
1214.48	125.644
1213.39	102.506
1212.3	63.3521
1211.21	42.531
1210.12	58.3415
1209.04	51.2637
1207.95	32.7517
1206.86	23.399
1205.77	4.904912
1204.68	11.5697
1203.59	-9.195470
1202.5	-7.097073
1201.41	-0.428061
1200.32	-9.749607
1199.23	-0.795125
1198.14	-0.975193
1197.05	1.129659
1195.96	23.7757
1194.87	23.5971
1193.78	32.5456
1192.69	11.8435
1191.59	2.554068
1190.5	9.229109
1189.41	20.462
1188.32	40.8073
1187.22	29.2518
1186.13	45.036
1185.04	99.5276
1183.94	122.125
1182.85	158.372
1181.75	130.887
1180.66	130.719
1179.57	87.3368
1178.47	73.54
1177.38	82.4886
1176.28	73.2513
1175.18	66.2938
1174.09	25.261
1172.99	27.4099
1171.9	18.2056
1170.8	31.7145
1169.7	29.33
1168.61	54.1848
1167.51	22.3051
1166.41	15.3971
1165.31	26.64
1164.21	8.403213
1163.12	12.8483
1162.02	-16.7032
1160.92	-9.981551
1159.82	-3.259492
1158.72	-12.392
1157.62	-3.400870
1156.52	19.1738
1155.42	-1.264567
1154.32	-30.7422
1153.22	7.671501
1152.12	32.4997
1151.02	27.9213
1149.92	68.5678
1148.82	177.014
1147.71	312.534
1146.61	350.841
1145.51	452.385
1144.41	287.391
1143.3	176.665
1142.2	95.3389
1141.1	117.871
1139.99	77.2172
1138.89	45.6088
1137.79	59.1263
1136.68	2.739371
1135.58	4.995637
1134.47	18.5239
1133.37	18.5294
1132.26	5.021235
1131.16	5.036899
1130.05	5.056143
1128.95	2.827496
1127.84	9.606829
1126.73	2.884497
1125.63	7.417887
1124.52	25.4488
1123.41	23.2355
1122.3	45.7582
1121.2	41.3003
1120.09	66.063
1118.98	63.8561
1117.87	54.9145
1116.76	70.6841
1115.65	117.884
1114.54	212.206
1113.43	306.49
1112.33	423.172
1111.21	528.587
1110.11	537.52
1108.99	378.281
1107.88	315.513
1106.77	225.881
1105.66	257.293
1104.55	342.459
1103.44	494.782
1102.33	559.709
1101.21	434.318
1100.1	293.318
1098.99	172.524
1097.88	125.615
1096.76	101.097
1095.65	60.9386
1094.54	56.5725
1093.42	70.0922
1092.31	67.9654
1091.19	70.3104
1090.08	74.8901
1088.96	137.532
1087.85	218.01
1086.73	345.328
1085.62	586.406
1084.5	838.532
1083.38	878.634
1082.27	700.166
1081.15	434.825
1080.03	283.292
1078.92	185.316
1077.8	140.861
1076.68	145.434
1075.56	103.239
1074.45	114.502
1073.33	83.4652
1072.21	70.2487
1071.09	63.7148
1069.97	43.8376
1068.85	39.5389
1067.73	39.6905
1066.61	15.3891
1065.49	44.4412
1064.37	22.3734
1063.25	49.1908
1062.13	47.123
1061.01	56.1594
1059.88	116.253
1058.76	211.833
1057.64	260.77
1056.52	291.936
1055.39	196.661
1054.27	116.953
1053.15	72.7528
1052.03	66.2538
1050.9	37.5974
1049.78	26.678
1048.65	48.9883
1047.53	13.7115
1046.41	11.6601
1045.28	0.755362
1044.15	18.6239
1043.03	7.721445
1041.9	-25.2962
1040.78	10.2557
1039.65	17.0482
1038.53	-4.899211
1037.4	-2.527976
1036.27	-22.2533
1035.14	-11.0454
1034.02	2.364432
1032.89	4.727416
1031.76	-8.363984
1030.63	-1.588503
1029.5	-10.2624
1028.38	-10.1101
1027.25	-5.548757
1026.12	-0.991151
1024.99	7.971565
1023.86	-7.314456
1022.73	3.845299
1021.6	1.780837
1020.47	10.7271
1019.34	4.254117
1018.2	4.386237
1017.07	-13.091
1015.94	6.843833
1014.81	13.568
1013.68	-17.1023
1012.54	0.613799
1011.41	-25.6477
1010.28	-3.547150
1009.15	-3.432786
1008.01	3.269428
1006.88	-7.604825
1005.75	12.2646
1004.61	25.5361
1003.48	21.2402
1002.34	27.9148
1001.21	-18.0681
1000.07	6.152866
998.936	15.01
997.8	10.706
996.664	6.400782
995.527	15.2421
994.391	10.9312
993.254	6.619018
992.117	-2.074203
990.979	4.558089
989.842	-4.137567
988.704	11.2381
987.566	-6.213261
986.428	-12.7239
985.289	-6.114695
984.15	-6.070983
983.011	0.526235
981.871	2.746164
980.731	9.330718
979.592	11.5399
978.451	5.009383
977.311	18.127
976.17	2.859176
975.029	13.7811
973.888	9.422028
972.746	2.879749
971.604	5.059289
970.462	-1.487013
969.32	-25.472
968.178	18.1052
967.034	11.5481
965.892	13.7028
964.748	-8.102249
963.604	17.9967
962.46	20.1359
961.316	17.9176
960.172	11.3449
959.026	9.121281
957.882	22.1172
956.736	0.316369
955.591	15.4736
954.445	11.0612
953.299	-2.043900
952.152	0.057887
951.006	10.8411
949.859	25.9574
948.712	15.0149
947.564	30.1149
946.417	1.811085
945.27	12.5606
944.121	-4.891161
942.973	18.8554
941.824	23.0782
940.675	29.4621
939.525	48.8386
938.376	48.7071
937.227	16.0876
936.076	15.9557
934.926	46.1243
933.775	28.6648
932.624	2.555059
931.474	4.573845
930.322	-6.387766
929.17	4.272631
928.019	-8.852987
926.866	-9.009879
925.714	-4.849268
924.561	-17.9749
923.408	7.774208
922.255	-3.196456
921.101	-5.531438
919.947	-1.394524
918.793	-20.9963
917.639	21.9623
916.484	19.6099
915.329	30.1914
914.174	27.8314
913.019	16.8491
911.863	38.1869
910.707	55.2033
909.551	57.134
908.395	22.4593
907.237	52.3735
906.08	28.4701
904.923	-4.030992
903.766	28.011
902.607	-8.781609
901.449	14.6409
900.291	23.0032
899.133	1.272865
897.974	1.035167
896.814	17.9792
895.655	-8.037072
894.495	13.1904
893.335	25.8197
892.175	27.711
891.015	25.3084
889.854	50.7896
888.692	39.8005
887.531	48.1107
886.369	52.128
885.207	34.7118
884.045	25.872
882.883	2.040959
881.72	21.049
880.557	-4.913895
879.394	26.9269
878.229	0.972012
877.066	-5.716480
875.902	-14.5421
874.737	8.712131
873.573	6.299098
872.408	16.7109
871.243	22.843
870.077	37.5172
868.911	39.368
867.745	56.1655
866.579	90.0343
865.413	119.618
864.246	189.732
863.079	347.285
861.911	434.375
860.743	448.921
859.576	312.092
858.407	228.613
857.239	134.519
856.07	100.122
854.901	76.3906
853.731	50.5411
852.562	28.9623
851.393	13.7791
850.223	24.1389
849.052	2.582686
847.881	21.4491
846.71	-0.094994
845.539	-23.754
844.367	-0.641679
843.195	9.711118
842.023	24.3089
840.852	-7.825541
839.679	6.771542
838.506	8.625395
837.332	38.071
836.159	25.0657
834.985	16.3107
833.812	20.2868
832.637	3.058062
831.462	26.1176
830.287	15.2572
829.112	27.7118
827.937	33.8067
826.762	58.9621
825.585	88.342
824.409	88.0732
823.232	144.95
822.056	282.206
820.879	516.709
819.701	488.853
818.523	262.257
817.346	145.694
816.168	67.2301
814.989	41.6283
813.811	41.39
812.632	62.2734
811.452	87.3719
810.272	68.1318
809.093	44.6824
807.912	19.1365
806.732	29.4656
805.552	37.6832
804.37	37.4657
803.189	49.8987
802.008	56.0059
800.826	104.251
799.644	186.179
798.461	278.6
797.278	579.417
796.096	911.667
794.912	1163.79
793.729	969.773
792.545	605.47
791.361	413.782
790.177	253.724
788.992	165.21
787.808	108.262
786.622	76.5552
785.437	65.8704
784.251	36.2941
783.064	40.3253
781.879	23.3682
780.691	12.717
779.505	18.8572
778.317	8.217562
777.13	-14.9958
775.942	5.829564
774.755	11.9762
773.566	11.8362
772.378	-2.965703
771.188	-3.096961
770	-3.225498
768.811	9.209128
767.62	-16.0327
766.431	-7.780772
765.24	4.653429
764.05	-3.830326
762.858	-8.125831
761.668	14.7589
760.477	2.105875
759.284	39.6079
758.093	47.8489
756.9	33.1151
755.708	85.2051
754.515	87.1732
753.322	216.447
752.129	335.229
750.935	485.245
749.741	535.089
748.547	376.414
747.352	219.901
746.157	103.061
744.962	88.3672
743.767	50.7697
742.571	25.6866
741.375	38.0925
740.179	31.7605
738.982	6.703933
737.785	33.6728
736.588	8.630132
735.391	6.474980
734.193	4.321914
732.995	-14.4572
731.797	-20.7584
730.599	4.106821
729.399	-18.8103
728.2	3.967439
727.001	12.2028
725.801	18.3593
724.602	-0.386998
723.401	22.3666
722.2	24.3693
720.999	22.2242
719.799	30.4456
718.597	49.0257
717.396	71.7411
716.193	65.4439
714.991	65.3628
713.788	94.2692
712.586	98.321
711.383	141.692
710.179	180.904
708.976	213.89
707.771	319.243
706.566	509.315
705.362	951.479
704.157	1986.54
702.952	2923.99
701.747	2590.66
700.541	1542.97
699.335	875.658
698.129	582.271
696.922	478.877
695.715	361.089
694.508	249.544
693.301	142.176
692.093	121.446
690.885	73.9304
689.676	69.7095
688.468	51.0683
687.259	53.0311
686.049	28.2225
684.84	30.1869
683.63	28.0325
682.42	34.1083
681.209	34.0081
679.999	58.5865
678.788	25.5785
677.576	50.1438
676.365	58.2543
675.153	54.0311
673.94	49.8082
672.729	76.3914
671.516	86.5344
670.303	113.093
669.089	143.741
667.876	127.183
666.662	124.991
665.447	122.797
664.233	98.0512
663.019	95.8626
661.803	79.3287
660.588	81.2404
659.372	85.198
658.156	74.818
656.94	58.2999
655.724	39.7418
654.507	58.0247
653.289	145.855
652.072	286.819
650.854	544.269
649.637	762.752
648.418	668.423
647.199	351.417
645.98	183.69
644.762	103.864
643.542	66.955
642.322	77.0149
641.102	42.1707
639.882	31.8278
638.661	3.131034
637.44	11.1573
636.219	19.1799
634.997	19.0456
633.775	6.684460
632.554	12.6668
631.331	18.6471
630.108	-9.993777
628.885	0.063148
627.662	20.2939
626.438	7.956983
625.214	-6.406786
623.99	7.713879
622.766	-6.639041
621.541	-6.751930
620.315	5.332489
619.09	-13.0665
617.864	11.2079
616.639	13.1323
615.412	-11.3382
614.186	-3.313003
612.959	-19.6428
611.731	4.619970
610.504	4.532029
609.276	-3.664175
608.048	-13.8799
606.82	2.265956
605.591	-5.910764
604.362	-3.948248
603.133	22.3256
601.903	10.1144
600.674	16.136
599.443	18.1119
598.213	42.3526
596.982	22.0777
595.751	20.0226
594.52	1.797114
593.288	70.5194
592.057	70.4939
590.824	131.096
589.592	201.777
588.358	197.7
587.126	139.112
585.893	94.6913
584.658	92.6824
583.425	120.948
582.19	108.862
580.955	133.091
579.721	133.12
578.485	169.44
577.25	153.353
576.014	181.606
574.777	149.423
573.541	103.166
572.305	89.1518
571.067	63.0747
569.83	35.0048
568.593	59.2649
567.354	59.3831
566.116	53.4749
564.878	47.5759
563.639	29.6263
562.4	29.7762
561.16	5.824159
559.921	3.982139
558.681	-1.870009
557.44	24.4052
556.199	-3.517656
554.959	22.7527
553.718	69.074
552.476	17.103
551.234	23.306
549.992	39.5302
548.749	71.78
547.507	112.028
546.264	156.262
545.021	134.386
543.776	80.4828
542.532	48.6208
541.288	32.7788
540.044	26.9421
538.799	41.1033
537.554	9.256021
536.309	3.404629
535.062	-2.454683
533.816	11.659
532.57	-18.1988
531.323	5.869090
530.076	-6.034158
528.829	4.008894
527.581	10.0347
526.334	0.072198
525.085	-7.915298
523.837	-5.953973
522.588	7.940543
521.339	-0.130491
520.09	-2.252773
518.84	-0.425750
517.59	5.345087
516.339	-6.852094
515.089	-11.1242
513.838	-1.508927
512.586	-3.889776
511.335	21.5296
510.083	7.097755
508.831	6.531276
507.578	3.911315
506.325	-12.6896
505.072	10.3862
503.819	21.4538
502.565	-7.288946
501.312	11.5513
500.057	10.4388
498.803	-20.5382
497.548	-9.934224
496.292	-5.393963
495.037	26.7984
493.781	17.2189