File: Finalized Code/Tuned Standard Models/RAMAN Data MITACs/ESMA/tcnpowder/Raw/Raw(4).txt
#Wave		#Intensity
1634.03	17.3578
1633.03	-8.012337
1632.04	21.6616
1631.04	-8.426867
1630.04	-8.425185
1629.04	9.172421
1628.04	4.442626
1627.05	-10.1329
1626.05	2.839062
1625.05	28.3839
1624.05	54.0295
1623.05	104.686
1622.05	145.46
1621.05	138.998
1620.05	145.084
1619.05	146.28
1618.05	102.764
1617.05	138.979
1616.05	98.1372
1615.05	171.806
1614.04	178.376
1613.04	177.557
1612.04	211.607
1611.04	250.68
1610.04	376.763
1609.04	433.298
1608.03	368.167
1607.03	377.613
1606.03	439.242
1605.02	453.736
1604.02	453.383
1603.02	502.696
1602.01	539.63
1601.01	715.469
1600	1111.95
1599	1533.09
1598	1904.52
1596.99	1983.43
1595.99	1628.79
1594.98	1150.49
1593.98	808.622
1592.97	660.036
1591.96	489.26
1590.96	380.45
1589.95	355.832
1588.94	343.615
1587.94	353.68
1586.93	395.905
1585.92	470.268
1584.92	712.689
1583.91	1088.47
1582.9	1412.21
1581.89	1656.79
1580.88	1607.4
1579.88	1380.26
1578.87	1081.64
1577.86	987.998
1576.85	847.522
1575.84	751.517
1574.83	677.756
1573.82	525.121
1572.81	387.346
1571.8	286.607
1570.79	188.377
1569.78	208.458
1568.77	142.314
1567.76	122.993
1566.75	76.5955
1565.74	108.995
1564.72	133.997
1563.71	58.0947
1562.7	73.2535
1561.69	81.0243
1560.67	66.6567
1559.66	47.375
1558.65	47.7641
1557.64	28.4886
1556.62	41.1607
1555.61	31.7132
1554.59	0.161159
1553.58	7.907431
1552.57	-13.8154
1551.55	-1.169449
1550.54	16.3743
1549.52	16.7306
1548.51	-0.089568
1547.49	-14.4556
1546.48	0.602376
1545.46	-33.3807
1544.45	20.8791
1543.43	-3.304218
1542.41	21.5156
1541.4	24.2741
1540.38	2.536340
1539.36	-4.507813
1538.35	25.1625
1537.33	3.420047
1536.31	1.255191
1535.29	13.763
1534.27	14.0305
1533.26	24.0729
1532.24	14.5467
1531.22	2.574112
1530.2	-6.955770
1529.18	10.3881
1528.16	27.7186
1527.14	18.1717
1526.12	20.8314
1525.1	21.0429
1524.08	4.164344
1523.06	4.368189
1522.04	7.005977
1521.02	14.5156
1520	-14.5624
1518.98	5.128254
1517.96	-16.6331
1516.93	-21.3311
1515.91	-28.4684
1514.89	0.932399
1513.87	-1.345313
1512.85	-8.496734
1511.82	15.9986
1510.8	35.611
1509.78	23.5762
1508.75	48.0362
1507.73	62.752
1506.71	138.255
1505.68	177.252
1504.66	189.488
1503.63	209.007
1502.61	121.601
1501.58	104.68
1500.56	109.621
1499.53	85.4172
1498.51	63.6486
1497.48	54.0225
1496.45	39.5441
1495.43	39.6266
1494.4	37.2806
1493.38	27.6574
1492.35	22.8853
1491.32	37.5063
1490.29	18.1875
1489.27	1.297759
1488.24	28.0209
1487.21	-13.0891
1486.18	-3.329477
1485.15	13.6876
1484.12	21.0133
1483.1	-3.126683
1482.07	11.4552
1481.04	13.934
1480.01	9.154861
1478.98	21.3026
1477.95	35.8616
1476.92	23.8261
1475.89	31.1266
1474.86	4.599279
1473.83	4.652334
1472.79	28.8541
1471.76	45.8014
1470.73	38.6014
1469.7	38.644
1468.67	9.730953
1467.64	14.603
1466.6	14.6488
1465.57	-16.654
1464.54	-2.137614
1463.51	9.961692
1462.47	-9.272349
1461.44	12.4598
1460.41	5.276479
1459.37	-16.3539
1458.34	-28.3443
1457.3	-1.813532
1456.27	0.638017
1455.23	12.7131
1454.2	-11.3033
1453.16	-18.4732
1452.13	-8.807256
1451.09	12.8752
1450.06	-20.7368
1449.02	-3.867975
1447.98	27.4094
1446.95	13.0321
1445.91	-3.741138
1444.87	17.9107
1443.84	13.146
1442.8	-13.218
1441.76	10.8204
1440.72	1.260904
1439.68	10.8937
1438.65	1.337267
1437.61	-13.0106
1436.57	1.411541
1435.53	-22.5175
1434.49	-5.704542
1433.45	6.309534
1432.41	-0.842175
1431.37	25.5313
1430.33	18.377
1429.29	-10.3162
1428.25	-24.6403
1427.21	1.712398
1426.17	1.741628
1425.13	28.0755
1424.09	37.6608
1423.04	16.1654
1422	30.5266
1420.96	44.8805
1419.92	44.8937
1418.88	54.459
1417.83	64.0188
1416.79	28.2136
1415.75	21.0641
1414.7	33.0068
1413.66	25.8563
1412.62	6.780526
1411.57	49.7158
1410.53	-7.508948
1409.48	30.6398
1408.44	23.4883
1407.39	13.9551
1406.35	13.9529
1405.3	13.9485
1404.26	25.8481
1403.21	28.2174
1402.16	-7.499795
1401.12	-5.129069
1400.07	-7.520172
1399.02	-7.534122
1397.98	1.961992
1396.93	11.4514
1395.88	20.9339
1394.83	68.4358
1393.79	89.7771
1392.74	144.365
1391.69	130.048
1390.64	134.731
1389.59	44.4459
1388.54	46.7656
1387.5	18.2311
1386.45	32.4116
1385.4	18.1181
1384.35	8.570355
1383.3	-0.976752
1382.25	20.2934
1381.19	1.260725
1380.14	10.6666
1379.09	1.112716
1378.04	31.8234
1376.99	22.2616
1375.94	5.597533
1374.89	3.138439
1373.83	26.7074
1372.78	10.0413
1371.73	2.839928
1370.68	-13.8221
1369.62	-9.201326
1368.57	-6.950740
1367.52	0.021444
1366.46	-21.3682
1365.41	16.3064
1364.35	37.4273
1363.3	13.669
1362.25	30.0509
1361.19	44.0609
1360.13	20.3031
1359.08	-1.089617
1358.02	45.9279
1356.97	29.2464
1355.91	31.4299
1354.86	38.3223
1353.8	9.855452
1352.74	54.4406
1351.69	30.6849
1350.63	61.1054
1349.57	89.1533
1348.51	77.1625
1347.46	41.6348
1346.4	64.9482
1345.34	29.4292
1344.28	40.9647
1343.22	45.4353
1342.16	45.197
1341.1	33.2006
1340.04	21.2048
1338.98	23.3073
1337.92	13.6586
1336.86	13.4038
1335.8	41.322
1334.74	29.3139
1333.68	5.570791
1332.62	-1.740578
1331.56	30.8304
1330.5	0.051703
1329.44	4.458098
1328.37	-21.6214
1327.31	-3.156948
1326.25	34.0436
1325.19	10.3042
1324.12	14.681
1323.06	21.3937
1322	-11.7066
1320.93	-12.023
1319.87	-7.662126
1318.8	-24.3676
1317.74	-17.675
1316.68	-25.0232
1315.61	-13.6644
1314.55	-11.6666
1313.48	-0.323454
1312.42	-7.685015
1311.35	1.307722
1310.28	7.957205
1309.22	-11.09
1308.15	7.226430
1307.08	2.187124
1306.02	11.1497
1304.95	13.1048
1303.88	10.3903
1302.82	7.673093
1301.75	30.6049
1300.68	27.8782
1299.61	11.1645
1298.54	50.3838
1297.47	40.6562
1296.41	9.965678
1295.34	0.245350
1294.27	51.0633
1293.2	43.661
1292.13	57.2049
1291.06	26.5313
1289.99	63.3316
1288.92	74.5299
1287.85	125.251
1286.77	254.99
1285.7	361.429
1284.63	395.782
1283.56	304.662
1282.49	269.326
1281.42	271.16
1280.34	268.349
1279.27	281.786
1278.2	304.498
1277.12	324.88
1276.05	414.842
1274.98	516.36
1273.9	673.482
1272.83	925.58
1271.75	1379.21
1270.68	1767.75
1269.61	1785.46
1268.53	1379.3
1267.46	940.903
1266.38	734.21
1265.3	532.237
1264.23	409.033
1263.15	346.038
1262.08	320.081
1261	289.51
1259.92	282.074
1258.84	276.954
1257.77	348.103
1256.69	319.866
1255.61	247.752
1254.53	184.908
1253.46	161.348
1252.38	177.044
1251.3	151.191
1250.22	185.346
1249.14	161.813
1248.06	149.824
1246.98	98.6405
1245.9	75.1475
1244.82	72.4121
1243.74	85.8116
1242.66	96.9041
1241.58	114.904
1240.5	102.961
1239.41	141.68
1238.33	184.989
1237.25	248.994
1236.17	299.169
1235.09	347.025
1234	422.462
1232.92	585.248
1231.84	646.813
1230.75	618.716
1229.67	542.38
1228.59	463.783
1227.5	396.709
1226.42	442.192
1225.33	501.435
1224.25	604.268
1223.16	805.74
1222.08	970.417
1220.99	898.758
1219.91	829.429
1218.82	679.886
1217.74	493.736
1216.65	431.432
1215.56	293.547
1214.48	233.617
1213.39	171.427
1212.3	168.806
1211.21	108.958
1210.12	99.4962
1209.04	46.5666
1207.95	39.4217
1206.86	59.7333
1205.77	64.0343
1204.68	13.4688
1203.59	17.7901
1202.5	22.1155
1201.41	12.7368
1200.32	26.2109
1199.23	3.145401
1198.14	9.778752
1197.05	-13.2599
1195.96	16.209
1194.87	18.2911
1193.78	47.7533
1192.69	31.5951
1191.59	42.8132
1190.5	40.3551
1189.41	58.4174
1188.32	53.6919
1187.22	99.0952
1186.13	92.099
1185.04	157.982
1183.94	301.249
1182.85	316.995
1181.75	282.678
1180.66	280.234
1179.57	195.913
1178.47	154.844
1177.38	150.179
1176.28	113.699
1175.18	86.3341
1174.09	58.9883
1172.99	70.2791
1171.9	83.8434
1170.8	72.4327
1169.7	61.0345
1168.61	40.5706
1167.51	11.047
1166.41	15.5723
1165.31	-11.6496
1164.21	-25.2466
1163.12	-2.557462
1162.02	4.263288
1160.92	-20.6359
1159.82	-0.206101
1158.72	-9.223174
1157.62	-15.9644
1156.52	-31.751
1155.42	-4.516823
1154.32	2.345695
1153.22	9.212495
1152.12	0.249668
1151.02	52.3581
1149.92	140.626
1148.82	319.28
1147.71	473.002
1146.61	726.078
1145.51	753.153
1144.41	491.143
1143.3	317.316
1142.2	213.555
1141.1	136.93
1139.99	159.629
1138.89	164.277
1137.79	89.9911
1136.68	56.333
1135.58	24.9511
1134.47	43.1755
1133.37	36.6112
1132.26	-3.737185
1131.16	34.7723
1130.05	12.4705
1128.95	-3.061099
1127.84	10.6818
1126.73	-0.329280
1125.63	13.4189
1124.52	40.6632
1123.41	61.1545
1122.3	70.4008
1121.2	104.375
1120.09	115.866
1118.98	122.864
1117.87	138.849
1116.76	188.52
1115.65	247.154
1114.54	375.356
1113.43	600.01
1112.33	943.488
1111.21	1181.38
1110.11	1118.64
1108.99	820.497
1107.88	726.492
1106.77	589.949
1105.66	592.398
1104.55	771.83
1103.44	1051.97
1102.33	1110.31
1101.21	848.486
1100.1	553.21
1098.99	399.047
1097.88	247.195
1096.76	202.777
1095.65	147.201
1094.54	136.367
1093.42	130.012
1092.31	134.835
1091.19	155.299
1090.08	198.092
1088.96	285.533
1087.85	422.055
1086.73	705.839
1085.62	1121.17
1084.5	1676.87
1083.38	1790.65
1082.27	1431.6
1081.15	936.699
1080.03	629.273
1078.92	451.247
1077.8	288.901
1076.68	240.237
1075.56	211.64
1074.45	196.416
1073.33	130
1072.21	170.443
1071.09	157.465
1069.97	102.227
1068.85	60.358
1067.73	71.8738
1066.61	94.4995
1065.49	54.8825
1064.37	68.6124
1063.25	97.8866
1062.13	84.9465
1061.01	154.171
1059.88	176.743
1058.76	367.988
1057.64	554.707
1056.52	588.26
1055.39	419.957
1054.27	251.728
1053.15	127.914
1052.03	106.114
1050.9	71.0248
1049.78	66.9668
1048.65	38.5432
1047.53	23.417
1046.41	28.2203
1045.28	44.0863
1044.15	33.3864
1043.03	16.0504
1041.9	-1.280760
1040.78	16.7758
1039.65	14.9219
1038.53	13.0649
1037.4	-4.264388
1036.27	-6.123761
1035.14	9.685349
1034.02	14.4404
1032.89	3.733691
1031.76	-9.180142
1030.63	-4.437413
1029.5	-1.907769
1028.38	-8.207855
1027.25	0.927733
1026.12	3.439268
1024.99	-5.077335
1023.86	-6.983761
1022.73	4.325520
1021.6	2.406962
1020.47	4.888055
1019.34	-10.2526
1018.2	3.225909
1017.07	21.0936
1015.94	8.142187
1014.81	14.9892
1013.68	-19.9611
1012.54	4.467501
1011.41	0.299808
1010.28	-10.4661
1009.15	-8.049767
1008.01	-1.247457
1006.88	3.348515
1005.75	-3.043703
1004.61	5.927216
1003.48	1.718174
1002.34	-9.079072
1001.21	-13.2972
1000.07	4.412457
998.936	19.9138
997.8	15.6698
996.664	20.1874
995.527	20.3129
994.391	-1.477193
993.254	-25.4553
992.117	0.934774
990.979	29.4942
989.842	1.124665
988.704	-7.545373
987.566	-9.656111
986.428	-27.0846
985.289	1.408697
984.15	14.577
983.011	12.431
981.871	1.536885
980.731	-4.990936
979.592	3.765673
978.451	14.6938
977.311	1.593105
976.17	25.5965
975.029	-9.339388
973.888	-11.5417
972.746	-9.388894
971.604	-2.883966
970.462	-13.832
969.32	7.912226
968.178	-0.870680
967.034	-5.300478
965.892	5.510826
964.748	-7.645742
963.604	5.321671
962.46	13.9214
961.316	24.6852
960.172	15.8546
959.026	-19.0821
957.882	6.879793
956.736	-10.6618
955.591	-2.119393
954.445	8.584095
953.299	-0.279384
952.152	10.4026
951.006	12.3851
949.859	-18.2084
948.712	-27.0892
947.564	-1.251671
946.417	11.5484
945.27	15.6583
944.121	8.915462
942.973	21.6812
941.824	45.2717
940.675	38.5039
939.525	101.063
938.376	100.77
937.227	61.4877
936.076	87.1698
934.926	127.985
933.775	54.0774
932.624	47.2682
931.474	36.1295
930.322	9.850924
929.17	-7.773969
928.019	-5.942715
926.866	4.525316
925.714	-2.302439
924.561	-15.6137
923.408	-9.488538
922.255	0.945628
921.101	-3.741185
919.947	-1.957137
918.793	-0.179914
917.639	18.8474
916.484	40.0169
915.329	15.8938
914.174	69.3765
913.019	60.3328
911.863	111.616
910.707	74.5536
909.551	104.264
908.395	75.8237
907.237	51.6971
906.08	10.3612
904.923	22.8285
903.766	9.473686
902.607	11.1744
901.449	-6.479556
900.291	18.8614
899.133	14.1007
897.974	2.893054
896.814	-12.6087
895.655	1.958887
894.495	-9.247756
893.335	18.1851
892.175	39.1644
891.015	21.5124
889.854	46.7659
888.692	65.5718
887.531	69.3589
886.369	81.7158
885.207	27.6326
884.045	63.5574
882.883	35.2045
881.72	11.146
880.557	-4.338446
879.394	-2.692847
878.229	26.7704
877.066	9.150996
875.902	8.650687
874.737	12.4267
873.573	26.8909
872.408	24.2481
871.243	40.8392
870.077	68.1045
868.911	88.9495
867.745	109.785
866.579	158.366
865.413	245.345
864.246	503
863.079	715.732
861.911	941.163
860.743	821.032
859.576	596.494
858.407	393.377
857.239	316.083
856.07	209.001
854.901	144.57
853.731	69.5237
852.562	43.4812
851.393	11.0677
850.223	-8.560390
849.052	31.3913
847.881	3.265071
846.71	-1.454218
845.539	-1.916362
844.367	-30.0061
843.195	-17.7056
842.023	-5.407447
840.852	21.7559
839.679	23.4286
838.506	25.1043
837.332	14.0482
836.159	30.5866
834.985	42.8781
833.812	44.5634
832.637	37.7701
831.462	45.8239
830.287	55.9977
829.112	40.7443
827.937	89.055
826.762	105.579
825.585	151.744
824.409	189.424
823.232	282.118
822.056	607.524
820.879	998.359
819.701	1016.79
818.523	586.958
817.346	332.792
816.168	156.947
814.989	76.2725
813.811	65.351
812.632	122.022
811.452	130.108
810.272	98.0892
809.093	66.0909
807.912	57.3224
806.732	50.6735
805.552	54.5778
804.37	58.4858
803.189	108.772
802.008	188.544
800.826	247.215
799.644	404.866
798.461	659.319
797.278	1141.04
796.096	1835.14
794.912	2322.68
793.729	2037.86
792.545	1368.25
791.361	806.215
790.177	513.562
788.992	296.723
787.808	256.512
786.622	195.316
785.437	113.151
784.251	91.929
783.064	56.0263
781.879	57.9271
780.691	49.3402
779.505	3.000322
778.317	-7.655844
777.13	-3.623004
775.942	8.799003
774.755	-12.3145
773.566	-1.981345
772.378	-33.5466
771.188	-0.164311
770	10.1739
768.811	12.1383
767.62	18.2924
766.431	24.4484
765.24	18.0544
764.05	34.674
762.858	1.107393
761.668	3.098860
760.477	13.4534
759.284	15.4494
758.093	86.384
756.9	94.6351
755.708	134.205
754.515	221.772
753.322	424.084
752.129	774.441
750.935	1057.88
749.741	1078.42
748.547	855.018
747.352	483.724
746.157	266.824
744.962	150.037
743.767	110.379
742.571	62.4118
741.375	37.372
740.179	1.939121
738.982	10.226
737.785	10.1889
736.588	5.993636
735.391	1.802117
734.193	35.0361
732.995	-4.491865
731.797	-25.2976
730.599	-21.1622
729.399	20.3584
728.2	-2.511904
727.001	3.693684
725.801	14.0479
724.602	3.647404
723.401	32.6681
722.2	47.157
720.999	69.933
719.799	63.6754
718.597	109.234
717.396	96.7534
716.193	127.781
714.991	150.508
713.788	167.012
712.586	208.348
711.383	274.498
710.179	295.095
708.976	400.493
707.771	588.561
706.566	946.078
705.362	1938.01
704.157	3925.56
702.952	5746.87
701.747	4865.51
700.541	2927.25
699.335	1621.68
698.129	1076.32
696.922	884.099
695.715	694.031
694.508	456.611
693.301	281.167
692.093	213.008
690.885	132.513
689.676	138.6
688.468	115.839
687.259	91.0269
686.049	74.4603
684.84	119.658
683.63	76.3306
682.42	86.5201
681.209	88.4729
679.999	98.6483
678.788	108.816
677.576	127.198
676.365	114.741
675.153	155.708
673.94	169.948
672.729	136.943
671.516	177.867
670.303	241.347
669.089	321.212
667.876	335.38
666.662	300.31
665.447	250.898
664.233	209.708
663.019	209.531
661.803	207.302
660.588	166.145
659.372	155.73
658.156	116.649
656.94	120.577
655.724	144.97
654.507	169.349
653.289	244.859
652.072	530.999
650.854	1105.32
649.637	1419.73
648.418	1094.27
647.199	548.289
645.98	257.926
644.762	143.343
643.542	112.532
642.322	110.315
641.102	71.3641
639.882	32.4325
638.661	22.0788
637.44	38.2433
636.219	7.506789
634.997	13.478
633.775	-7.044465
632.554	-5.143200
631.331	-17.4989
630.108	0.700758
628.885	12.7868
627.662	-7.696589
626.438	14.5676
625.214	2.239218
623.99	-12.1127
622.766	8.116007
621.541	16.1421
620.315	-6.317787
619.09	1.718933
617.864	13.8208
616.639	3.581992
615.412	-22.8894
614.186	9.530074
612.959	-29.0928
611.731	-21.021
610.504	15.4547
609.276	3.247564
608.048	-4.889807
606.82	21.4463
605.591	-6.939097
604.362	7.247187
603.133	21.4366
601.903	31.5793
600.674	25.5305
599.443	23.5439
598.213	27.6405
596.982	60.0707
595.751	72.2703
594.52	64.2542
593.288	114.883
592.057	139.224
590.824	333.306
589.592	387.911
588.358	389.99
587.126	309.292
585.893	234.702
584.658	204.564
583.425	230.951
582.19	229.097
580.955	269.61
579.721	336.328
578.485	380.854
577.25	405.218
576.014	383.242
574.777	321.003
573.541	226.585
572.305	220.814
571.067	188.891
569.83	156.995
568.593	107.019
567.354	117.421
566.116	103.697
564.878	67.8752
563.639	80.3194
562.4	64.6336
561.16	44.9462
559.921	51.3855
558.681	41.7645
557.44	30.1462
556.199	42.6225
554.959	45.0631
553.718	55.5293
552.476	53.9583
551.234	46.3721
549.992	126.99
548.749	183.516
547.507	219.973
546.264	264.419
545.021	252.76
543.776	171.022
542.532	115.333
541.288	37.6424
540.044	9.989847
538.799	12.3344
537.554	-9.340927
536.309	-11.0384
535.062	-6.766477
533.816	-4.525723
532.57	9.666534
531.323	11.831
530.076	5.966415
528.829	2.056485
527.581	20.0542
526.334	4.070093
525.085	5.990832
523.837	-0.127732
522.588	7.648180
521.339	9.369787
520.09	-8.913861
518.84	12.579
517.59	-9.847262
516.339	-10.4488
515.089	6.771482
513.838	7.955204
512.586	-12.8626
511.335	13.9619
510.083	-13.055
508.831	-6.384686
507.578	20.0234
506.325	-7.392465
505.072	-13.0914
503.819	-22.9237
502.565	-11.0769
501.312	18.4541
500.057	4.105320
498.803	1.473691
497.548	-5.336970
496.292	15.4048
495.037	2.192839
493.781	18.4834