File: Finalized Code/Tuned Standard Models/RAMAN Data MITACs/ESMA/tcnpowder/Raw/Raw(1).txt
#Wave		#Intensity
1634.03	137.319
1633.03	129.829
1632.04	132.298
1631.04	142.253
1630.04	122.262
1629.04	164.644
1628.04	144.657
1627.05	154.601
1626.05	134.624
1625.05	184.447
1624.05	189.392
1623.05	234.199
1622.05	323.824
1621.05	288.89
1620.05	278.87
1619.05	261.386
1618.05	261.331
1617.05	323.484
1616.05	278.636
1615.05	273.603
1614.04	288.466
1613.04	315.754
1612.04	367.889
1611.04	422.486
1610.04	429.851
1609.04	504.286
1608.03	509.148
1607.03	501.592
1606.03	531.278
1605.02	491.453
1604.02	598.057
1603.02	568.159
1602.01	674.702
1601.01	810.96
1600	1115.77
1599	1499.77
1598	1752.26
1596.99	1811.36
1595.99	1605.35
1594.98	1097.26
1593.98	918.729
1592.97	765.034
1591.96	606.453
1590.96	561.779
1589.95	497.33
1588.94	474.962
1587.94	504.541
1586.93	556.362
1585.92	608.161
1584.92	798.353
1583.91	1104.61
1582.9	1546.62
1581.89	1684.62
1580.88	1617.59
1579.88	1518.49
1578.87	1177.51
1577.86	1026.71
1576.85	937.661
1575.84	826.448
1574.83	727.615
1573.82	584.436
1572.81	505.418
1571.8	416.574
1570.79	381.985
1569.78	275.957
1568.77	273.435
1567.76	263.526
1566.75	253.622
1565.74	246.183
1564.72	233.824
1563.71	241.158
1562.7	231.266
1561.69	236.137
1560.67	213.954
1559.66	172.111
1558.65	167.158
1557.64	140.088
1556.62	149.887
1555.61	164.596
1554.59	162.105
1553.58	144.881
1552.57	137.486
1551.55	122.729
1550.54	139.882
1549.52	132.492
1548.51	134.917
1547.49	139.793
1546.48	139.764
1545.46	139.735
1544.45	164.215
1543.43	144.577
1542.41	156.796
1541.4	120.021
1540.38	129.792
1539.36	142.006
1538.35	156.664
1537.33	151.736
1536.31	119.895
1535.29	132.101
1534.27	166.315
1533.26	129.6
1532.24	146.686
1531.22	144.211
1530.2	151.512
1529.18	129.491
1528.16	161.219
1527.14	141.647
1526.12	112.317
1525.1	134.264
1524.08	139.117
1523.06	124.447
1522.04	156.136
1521.02	139.029
1520	114.614
1518.98	131.656
1517.96	173.067
1516.93	131.6
1515.91	141.319
1514.89	155.905
1513.87	151.001
1512.85	121.749
1511.82	150.937
1510.8	148.471
1509.78	175.208
1508.75	177.604
1507.73	235.944
1506.71	255.35
1505.68	294.198
1504.66	333.029
1503.63	315.947
1502.61	269.713
1501.58	257.509
1500.56	230.738
1499.53	218.547
1498.51	199.079
1497.48	172.336
1496.45	184.434
1495.43	172.264
1494.4	169.801
1493.38	147.938
1492.35	150.332
1491.32	145.452
1490.29	147.844
1489.27	155.083
1488.24	169.586
1487.21	150.173
1486.18	167.092
1485.15	147.688
1484.12	135.554
1483.1	142.785
1482.07	159.692
1481.04	152.401
1480.01	140.276
1478.98	152.336
1477.95	161.974
1476.92	159.523
1475.89	149.823
1474.86	161.871
1473.83	154.59
1472.79	152.142
1471.76	137.623
1470.73	161.734
1469.7	127.911
1468.67	132.71
1467.64	130.269
1466.6	123.006
1465.57	125.391
1464.54	132.597
1463.51	106.055
1462.47	113.262
1461.44	122.876
1460.41	113.214
1459.37	122.823
1458.34	134.836
1457.3	122.771
1456.27	122.745
1455.23	125.125
1454.2	115.476
1453.16	113.046
1452.13	122.641
1451.09	117.806
1450.06	115.377
1449.02	127.369
1447.98	122.536
1446.95	120.108
1445.91	127.287
1444.87	146.469
1443.84	120.031
1442.8	110.405
1441.76	127.179
1440.72	129.551
1439.68	105.538
1438.65	122.302
1437.61	136.661
1436.57	100.676
1435.53	131.809
1434.49	105.425
1433.45	141.335
1432.41	155.675
1431.37	102.963
1430.33	126.881
1429.29	143.608
1428.25	143.578
1427.21	133.977
1426.17	143.516
1425.13	153.051
1424.09	145.846
1423.04	172.109
1422	169.683
1420.96	179.204
1419.92	164.832
1418.88	174.351
1417.83	169.538
1416.79	159.952
1415.75	171.852
1414.7	164.656
1413.66	138.377
1412.62	126.421
1411.57	131.164
1410.53	128.751
1409.48	152.561
1408.44	119.163
1407.39	133.434
1406.35	140.552
1405.3	135.759
1404.26	114.299
1403.21	140.462
1402.16	142.812
1401.12	130.883
1400.07	121.338
1399.02	142.72
1397.98	149.824
1396.93	149.792
1395.88	175.909
1394.83	187.754
1393.79	216.227
1392.74	244.688
1391.69	285.013
1390.64	225.587
1389.59	192.301
1388.54	159.03
1387.5	132.892
1386.45	161.334
1385.4	151.811
1384.35	130.435
1383.3	149.375
1382.25	154.084
1381.19	139.831
1380.14	111.367
1379.09	125.557
1378.04	130.267
1376.99	134.974
1375.94	123.108
1374.89	123.082
1373.83	141.987
1372.78	134.858
1371.73	123.002
1370.68	120.611
1369.62	130.043
1368.57	132.378
1367.52	122.896
1366.46	132.321
1365.41	122.843
1364.35	151.159
1363.3	160.572
1362.25	127.486
1361.19	153.422
1360.13	143.95
1359.08	139.2
1358.02	167.476
1356.97	129.707
1355.91	167.403
1354.86	148.509
1353.8	131.98
1352.74	134.307
1351.69	167.259
1350.63	176.644
1349.57	207.217
1348.51	183.63
1347.46	190.652
1346.4	178.845
1345.34	148.221
1344.28	164.654
1343.22	162.267
1342.16	157.529
1341.1	176.301
1340.04	150.411
1338.98	145.679
1337.92	162.091
1336.86	159.708
1335.8	133.844
1334.74	143.205
1333.68	143.174
1332.62	122.024
1331.56	143.112
1330.5	145.427
1329.44	150.086
1328.37	140.675
1327.31	121.892
1326.25	133.583
1325.19	121.839
1324.12	124.155
1323.06	114.76
1322	133.467
1320.93	128.756
1319.87	126.388
1318.8	119.34
1317.74	135.691
1316.68	121.628
1315.61	119.263
1314.55	95.857
1313.48	126.223
1312.42	147.228
1311.35	130.841
1310.28	137.821
1309.22	142.462
1308.15	149.436
1307.08	128.393
1306.02	133.033
1304.95	158.672
1303.88	146.973
1302.82	163.267
1301.75	179.555
1300.68	170.19
1299.61	142.183
1298.54	167.786
1297.47	188.718
1296.41	165.384
1295.34	172.334
1294.27	176.953
1293.2	183.898
1292.13	172.221
1291.06	165.203
1289.99	188.43
1288.92	195.367
1287.85	274.384
1286.77	355.691
1285.7	432.315
1284.63	436.868
1283.56	432.126
1282.49	420.418
1281.42	397.104
1280.34	403.982
1279.27	431.749
1278.2	452.541
1277.12	482.605
1276.05	561.369
1274.98	651.695
1273.9	702.564
1272.83	1031.59
1271.75	1469.41
1270.68	1774.95
1269.61	1871.87
1268.53	1542.56
1267.46	1099.93
1266.38	807.985
1265.3	678.189
1264.23	564.648
1263.15	504.37
1262.08	506.573
1261	508.774
1259.92	455.484
1258.84	420.71
1257.77	480.706
1256.69	464.427
1255.61	378.852
1254.53	304.863
1253.46	311.723
1252.38	313.963
1251.3	286.198
1250.22	281.52
1249.14	279.151
1248.06	288.316
1246.98	262.886
1245.9	239.773
1244.82	239.721
1243.74	228.146
1242.66	237.311
1241.58	237.259
1240.5	264.843
1239.41	285.507
1238.33	322.275
1237.25	338.315
1236.17	388.861
1235.09	526.802
1234	600.285
1232.92	751.915
1231.84	806.924
1230.75	781.463
1229.67	712.354
1228.59	581.244
1227.5	560.444
1226.42	571.802
1225.33	624.482
1224.25	718.455
1223.16	842.219
1222.08	981.99
1220.99	1027.65
1219.91	910.463
1218.82	770.398
1217.74	644.149
1216.65	531.706
1215.56	421.605
1214.48	398.603
1213.39	313.774
1212.3	302.255
1211.21	279.295
1210.12	228.88
1209.04	237.982
1207.95	205.901
1206.86	205.855
1205.77	210.383
1204.68	221.768
1203.59	203.433
1202.5	178.25
1201.41	178.21
1200.32	180.455
1199.23	200.969
1198.14	168.959
1197.05	143.812
1195.96	175.731
1194.87	196.227
1193.78	187.059
1192.69	209.824
1191.59	193.816
1190.5	189.214
1189.41	223.36
1188.32	218.753
1187.22	232.373
1186.13	234.599
1185.04	309.693
1183.94	409.797
1182.85	484.819
1181.75	443.75
1180.66	407.249
1179.57	398.06
1178.47	361.585
1177.38	311.485
1176.28	281.866
1175.18	249.986
1174.09	270.38
1172.99	247.603
1171.9	227.109
1170.8	215.705
1169.7	222.467
1168.61	181.565
1167.51	165.642
1166.41	147.456
1165.31	156.495
1164.21	156.461
1163.12	156.426
1162.02	179.056
1160.92	145.026
1159.82	176.711
1158.72	181.201
1157.62	156.251
1156.52	147.16
1155.42	169.762
1154.32	185.565
1153.22	185.524
1152.12	205.84
1151.02	251.024
1149.92	302.97
1148.82	397.842
1147.71	644.088
1146.61	899.262
1145.51	880.989
1144.41	754.319
1143.3	514.809
1142.2	379.248
1141.1	336.282
1139.99	313.642
1138.89	309.06
1137.79	239.073
1136.68	200.686
1135.58	191.624
1134.47	180.311
1133.37	205.058
1132.26	211.771
1131.16	171.18
1130.05	177.898
1128.95	171.104
1127.84	171.065
1126.73	193.53
1125.63	209.236
1124.52	236.181
1123.41	215.888
1122.3	267.551
1121.2	245.013
1120.09	249.452
1118.98	267.371
1117.87	292.02
1116.76	323.396
1115.65	381.701
1114.54	487.12
1113.43	724.905
1112.33	998.483
1111.21	1245.02
1110.11	1204.37
1108.99	1004.53
1107.88	768.924
1106.77	643.24
1105.66	625.169
1104.55	802.007
1103.44	1133.31
1102.33	1135.29
1101.21	917.879
1100.1	709.517
1098.99	507.962
1097.88	364.666
1096.76	306.429
1095.65	283.998
1094.54	232.512
1093.42	272.693
1092.31	310.621
1091.19	299.38
1090.08	357.388
1088.96	381.872
1087.85	580.493
1086.73	741.077
1085.62	1278.74
1084.5	1751.45
1083.38	1860.36
1082.27	1516.5
1081.15	1021.17
1080.03	715.551
1078.92	581.671
1077.8	456.765
1076.68	356.418
1075.56	334.067
1074.45	291.685
1073.33	298.297
1072.21	302.681
1071.09	271.461
1069.97	251.378
1068.85	271.338
1067.73	233.475
1066.61	253.43
1065.49	240.037
1064.37	246.649
1063.25	244.371
1062.13	244.316
1061.01	262.024
1059.88	352.987
1058.76	486.079
1057.64	659.052
1056.52	709.929
1055.39	519.017
1054.27	376.978
1053.15	297.08
1052.03	234.95
1050.9	208.304
1049.78	199.395
1048.65	188.274
1047.53	177.159
1046.41	188.189
1045.28	157.157
1044.15	143.843
1043.03	143.811
1041.9	170.321
1040.78	145.956
1039.65	150.345
1038.53	123.785
1037.4	141.437
1036.27	145.823
1035.14	141.372
1034.02	130.298
1032.89	145.723
1031.76	134.653
1030.63	128.001
1029.5	156.656
1028.38	127.943
1027.25	145.557
1026.12	141.114
1024.99	149.899
1023.86	149.865
1022.73	138.814
1021.6	134.376
1020.47	132.143
1019.34	121.103
1018.2	125.478
1017.07	154.061
1015.94	143.024
1014.81	140.791
1013.68	145.157
1012.54	147.323
1011.41	151.686
1010.28	136.266
1009.15	131.84
1008.01	123.023
1006.88	164.725
1005.75	147.12
1004.61	127.329
1003.48	142.663
1002.34	133.853
1001.21	118.466
1000.07	131.598
998.936	131.568
997.8	133.73
996.664	129.316
995.527	144.625
994.391	144.592
993.254	144.558
992.117	133.576
990.979	146.681
989.842	135.704
988.704	133.484
987.566	146.58
986.428	122.486
985.289	137.765
984.15	122.43
983.011	131.145
981.871	133.3
980.731	137.638
979.592	107.027
978.451	139.759
977.311	133.177
976.17	104.771
975.029	174.577
973.888	146.175
972.746	148.322
971.604	126.481
970.462	132.992
969.32	141.68
968.178	137.289
967.034	148.151
965.892	137.226
964.748	137.194
963.604	141.517
962.46	143.661
961.316	139.275
960.172	143.594
959.026	152.262
957.882	158.75
956.736	141.32
955.591	117.377
954.445	145.601
953.299	134.704
952.152	132.501
951.006	149.843
949.859	136.782
948.712	136.75
947.564	154.079
946.417	154.044
945.27	160.515
944.121	171.321
942.973	169.113
941.824	171.242
940.675	179.87
939.525	220.994
938.376	233.94
937.227	212.229
936.076	218.675
934.926	274.904
933.775	186.112
932.624	179.578
931.474	136.275
930.322	140.568
929.17	149.184
928.019	159.957
926.866	140.47
925.714	146.919
924.561	129.604
923.408	142.532
922.255	140.339
921.101	159.734
919.947	144.59
918.793	153.187
917.639	144.523
916.484	176.837
915.329	213.449
914.174	191.844
913.019	196.109
911.863	228.381
910.707	221.866
909.551	230.428
908.395	230.375
907.237	213.101
906.08	165.706
904.923	159.213
903.766	161.327
902.607	150.536
901.449	148.351
900.291	139.719
899.133	141.835
897.974	163.287
896.814	143.917
895.655	152.473
894.495	145.996
893.335	167.427
892.175	186.702
891.015	218.841
889.854	233.805
888.692	225.172
887.531	259.423
886.369	225.066
885.207	210.013
884.045	224.961
882.883	158.507
881.72	182.026
880.557	179.842
879.394	169.098
878.229	184.038
877.066	164.739
875.902	173.257
874.737	168.939
873.573	158.21
872.408	185.96
871.243	192.327
870.077	224.329
868.911	230.684
867.745	284.016
866.579	313.839
865.413	379.933
864.246	618.847
863.079	878.983
861.911	961.961
860.743	927.616
859.576	746.182
858.407	573.359
857.239	443.237
856.07	383.48
854.901	310.972
853.731	221.462
852.562	223.539
851.393	174.532
850.223	157.467
849.052	178.705
847.881	155.266
846.71	138.218
845.539	159.445
844.367	172.16
843.195	203.993
842.023	186.95
840.852	195.402
839.679	178.368
838.506	171.957
837.332	203.753
836.159	193.095
834.985	210.021
833.812	188.762
832.637	195.079
831.462	192.913
830.287	209.823
829.112	252.152
827.937	230.908
826.762	292.273
825.585	368.431
824.409	368.344
823.232	480.427
822.056	717.297
820.879	1125.4
819.701	1163.21
818.523	716.788
817.346	486.201
816.168	310.672
814.989	230.308
813.811	217.579
812.632	282.997
811.452	295.598
810.272	287.085
809.093	236.367
807.912	202.552
806.732	225.708
805.552	236.199
804.37	269.877
803.189	288.785
802.008	343.509
800.826	370.818
799.644	516.072
798.461	770.766
797.278	1227.46
796.096	1953.36
794.912	2455.86
793.729	2131.27
792.545	1445.05
791.361	927.388
790.177	666.468
788.992	517.073
787.808	426.589
786.622	361.359
785.437	294.059
784.251	277.19
783.064	249.832
781.879	237.179
780.691	214.04
779.505	207.695
778.317	211.84
777.13	195.015
775.942	182.39
774.755	165.579
773.566	165.539
772.378	169.69
771.188	203.16
770	167.515
768.811	184.223
767.62	186.272
766.431	194.597
765.24	200.827
764.05	194.504
762.858	207.004
761.668	204.864
760.477	211.085
759.284	200.587
758.093	267.386
756.9	279.853
755.708	288.138
754.515	379.917
753.322	525.914
752.129	865.882
750.935	1147.28
749.741	1228.34
748.547	971.595
747.352	642.017
746.157	414.711
744.962	304.187
743.767	289.534
742.571	239.485
741.375	243.592
740.179	222.719
738.982	216.423
737.785	228.854
736.588	216.319
735.391	164.28
734.193	207.9
732.995	207.85
731.797	191.176
730.599	186.976
729.399	189.008
728.2	174.427
727.001	197.221
725.801	220.005
724.602	180.527
723.401	213.676
722.2	184.588
720.999	240.529
719.799	244.618
718.597	283.937
717.396	317.022
716.193	314.875
714.991	368.646
713.788	376.84
712.586	438.851
711.383	411.842
710.179	486.229
708.976	564.718
707.771	742.437
706.566	1046.19
705.362	1920.31
704.157	3821.11
702.952	5572.23
701.747	4984.26
700.541	2981.99
699.335	1761.1
698.129	1219.88
696.922	1050.37
695.715	924.273
694.508	622.909
693.301	447.48
692.093	360.784
690.885	333.903
689.676	335.883
688.468	294.599
687.259	286.29
686.049	290.34
684.84	261.449
683.63	286.084
682.42	259.265
681.209	255.088
679.999	259.14
678.788	257.022
677.576	322.742
676.365	308.278
675.153	275.329
673.94	338.942
672.729	328.592
671.516	377.79
670.303	402.332
669.089	472.01
667.876	486.259
666.662	408.195
665.447	440.908
664.233	444.902
663.019	375.104
661.803	399.604
660.588	403.606
659.372	329.771
658.156	315.357
656.94	313.233
655.724	319.298
654.507	329.453
653.289	386.656
652.072	674.95
650.854	1194.17
649.637	1602.74
648.418	1318.27
647.199	766.249
645.98	516.838
644.762	355.368
643.542	267.482
642.322	298.038
641.102	251.026
639.882	267.289
638.661	228.466
637.44	232.49
636.219	226.317
634.997	236.454
633.775	191.563
632.554	209.854
631.331	189.434
630.108	213.825
628.885	181.198
627.662	181.155
626.438	205.53
625.214	197.343
623.99	197.295
622.766	193.18
621.541	217.529
620.315	209.347
619.09	193.04
617.864	188.93
616.639	176.699
615.412	188.839
614.186	200.973
612.959	174.541
611.731	182.615
610.504	204.885
609.276	200.779
608.048	194.648
606.82	192.573
605.591	192.527
604.362	226.924
603.133	218.766
601.903	228.839
600.674	222.71
599.443	218.607
598.213	236.767
596.982	228.617
595.751	238.675
594.52	254.795
593.288	299.21
592.057	327.435
590.824	464.764
589.592	589.905
588.358	565.525
587.126	478.56
585.893	377.507
584.658	349.159
583.425	379.341
582.19	363.111
580.955	399.325
579.721	453.668
578.485	540.238
577.25	576.383
576.014	564.154
574.777	483.443
573.541	406.799
572.305	384.553
571.067	356.28
569.83	334.057
568.593	297.762
567.354	299.701
566.116	257.398
564.878	273.419
563.639	257.273
562.4	267.258
561.16	233.041
559.921	226.959
558.681	204.816
557.44	220.826
556.199	220.772
554.959	222.725
553.718	266.804
552.476	240.667
551.234	240.608
549.992	268.614
548.749	340.696
547.507	418.754
546.264	450.702
545.021	484.637
543.776	380.408
542.532	288.239
541.288	250.146
540.044	214.073
538.799	188.019
537.554	169.975
536.309	191.926
535.062	177.888
533.816	221.806
532.57	181.797
531.323	193.736
530.076	195.686
528.829	191.646
527.581	161.662
526.334	181.576
525.085	177.542
523.837	193.453
522.588	209.357
521.339	167.445
520.09	195.305
518.84	165.371
517.59	191.226
516.339	185.205
515.089	195.115
513.838	207.01
512.586	163.18
511.335	192.983
510.083	208.848
508.831	216.751
507.578	182.901
506.325	172.919
505.072	182.812
503.819	196.674
502.565	184.709
501.312	194.593
500.057	194.545
498.803	202.436
497.548	212.308
496.292	222.175
495.037	218.154
493.781	216.118