File: Finalized Code/Tuned Standard Models/RAMAN Data MITACs/ESMA/tcnpowder/Raw/Raw(5).txt
#Wave		#Intensity
1634.03	6.601269
1633.03	2.971618
1632.04	-12.853
1631.04	56.4904
1630.04	3.830798
1629.04	-16.0934
1628.04	4.165395
1627.05	7.229434
1626.05	-6.908256
1625.05	21.5791
1624.05	12.9119
1623.05	81.7128
1622.05	100.883
1621.05	125.239
1620.05	92.5217
1619.05	99.8451
1618.05	77.4862
1617.05	97.623
1616.05	90.5584
1615.05	116
1614.04	104.289
1613.04	157.383
1612.04	173.315
1611.04	209.265
1610.04	240.368
1609.04	264.135
1608.03	302.919
1607.03	257.379
1606.03	291.417
1605.02	300.728
1604.02	287.805
1603.02	356.862
1602.01	502.879
1601.01	661.326
1600	899.134
1599	1285.66
1598	1558.09
1596.99	1746.24
1595.99	1399.25
1594.98	1087.15
1593.98	770.295
1592.97	540.281
1591.96	394.58
1590.96	372.731
1589.95	291.556
1588.94	284.673
1587.94	290.2
1586.93	347.692
1585.92	387.89
1584.92	561.575
1583.91	846.421
1582.9	1074.35
1581.89	1265.16
1580.88	1268.22
1579.88	1115.75
1578.87	906.582
1577.86	774.032
1576.85	772.331
1575.84	647.294
1574.83	588.916
1573.82	449.195
1572.81	284.886
1571.8	221.715
1570.79	202.935
1569.78	142.28
1568.77	86.5791
1567.76	85.0851
1566.75	100.828
1565.74	64.8632
1564.72	73.2146
1563.71	81.5583
1562.7	75.1323
1561.69	53.9431
1560.67	57.3488
1559.66	45.9926
1558.65	29.7157
1557.64	33.0983
1556.62	9.439926
1555.61	-11.764
1554.59	38.2588
1553.58	9.667331
1552.57	5.625809
1551.55	-13.1543
1550.54	-24.5784
1549.52	-1.662582
1548.51	-8.206995
1547.49	9.761115
1546.48	17.8972
1545.46	11.3064
1544.45	-7.553513
1543.43	10.3347
1542.41	-13.4495
1541.4	9.298207
1540.38	-2.265428
1539.36	40.0237
1538.35	23.528
1537.33	14.3645
1536.31	19.8684
1535.29	13.1207
1534.27	11.2504
1533.26	-5.308490
1532.24	19.6831
1531.22	17.7598
1530.2	20.7073
1529.18	6.533963
1528.16	26.5472
1527.14	41.6504
1526.12	27.4298
1525.1	3.433625
1524.08	-23.0095
1523.06	4.224767
1522.04	4.595197
1521.02	-7.246023
1520	-19.0988
1518.98	20.2375
1517.96	27.8531
1516.93	20.8277
1515.91	-5.701896
1514.89	31.1008
1513.87	21.5989
1512.85	4.781442
1511.82	39.081
1510.8	39.2764
1509.78	68.6596
1508.75	49.3582
1507.73	93.2946
1506.71	129.904
1505.68	159.191
1504.66	159.283
1503.63	195.818
1502.61	169.15
1501.58	164.346
1500.56	120.672
1499.53	72.1488
1498.51	81.9026
1497.48	11.5418
1496.45	38.2714
1495.43	69.8325
1494.4	48.0048
1493.38	45.579
1492.35	60.1185
1491.32	40.7046
1490.29	18.8671
1489.27	43.0712
1488.24	35.7629
1487.21	55.0939
1486.18	-5.503877
1485.15	35.604
1484.12	28.276
1483.1	35.4655
1482.07	28.1285
1481.04	25.6272
1480.01	3.773151
1478.98	10.9397
1477.95	-1.241836
1476.92	-8.588788
1475.89	8.228015
1474.86	51.6093
1473.83	41.8281
1472.79	19.9726
1471.76	43.9974
1470.73	51.1113
1469.7	29.2581
1468.67	2.585661
1467.64	26.5825
1466.6	14.3883
1465.57	-0.213979
1464.54	-14.8121
1463.51	4.339253
1462.47	1.792225
1461.44	6.473022
1460.41	-8.119831
1459.37	-3.441180
1458.34	32.5359
1457.3	15.5369
1456.27	-20.7095
1455.23	12.8405
1454.2	36.7529
1453.16	-11.5018
1452.13	-4.427500
1451.09	2.644054
1450.06	-7.113091
1449.02	-0.043384
1447.98	14.2318
1446.95	2.077736
1445.91	35.561
1444.87	9.002215
1443.84	4.061321
1442.8	8.723862
1441.76	18.1848
1440.72	3.651822
1439.68	-13.2723
1438.65	-8.605395
1437.61	22.4339
1436.57	-6.464659
1435.53	-8.987706
1434.49	45.9963
1433.45	19.511
1432.41	-16.5416
1431.37	-2.292766
1430.33	-4.806395
1429.29	7.043409
1428.25	11.711
1427.21	18.7706
1426.17	-5.266319
1425.13	-10.1599
1424.09	35.1594
1423.04	37.4338
1422	51.6583
1420.96	46.7632
1419.92	49.0384
1418.88	32.2074
1417.83	53.5907
1416.79	39.1563
1415.75	17.5691
1414.7	48.4916
1413.66	10.2138
1412.62	-4.193227
1411.57	10.0248
1410.53	36.1595
1409.48	9.841166
1408.44	2.601454
1407.39	35.8728
1406.35	4.810456
1405.3	7.106658
1404.26	11.7842
1403.21	-9.727315
1402.16	6.854470
1401.12	35.3284
1400.07	25.724
1399.02	-19.5558
1397.98	32.6891
1396.93	-10.194
1395.88	13.5016
1394.83	41.9408
1393.79	87.0008
1392.74	115.412
1391.69	115.311
1390.64	81.9646
1389.59	72.3737
1388.54	43.7981
1387.5	31.846
1386.45	27.0163
1385.4	10.3282
1384.35	19.7335
1383.3	19.6502
1382.25	-8.880043
1381.19	-6.588651
1380.14	-35.1026
1379.09	9.833529
1378.04	9.748116
1376.99	19.1336
1375.94	23.7788
1374.89	-9.450570
1373.83	11.7613
1372.78	4.571251
1371.73	-19.1752
1370.68	2.020334
1369.62	-5.167852
1368.57	11.2842
1367.52	-12.4504
1366.46	18.1695
1365.41	-10.2851
1364.35	25.0407
1363.3	-3.407543
1362.25	13.0102
1361.19	8.175402
1360.13	41.0976
1359.08	22.0978
1358.02	52.6388
1356.97	38.3561
1355.91	24.0768
1354.86	42.8027
1353.8	23.8093
1352.74	26.0274
1351.69	42.3762
1350.63	61.07
1349.57	42.0766
1348.51	32.5051
1347.46	67.6553
1346.4	62.7822
1345.34	32.0281
1344.28	24.8057
1343.22	22.2862
1342.16	22.1155
1341.1	10.1879
1340.04	40.5648
1338.98	21.582
1337.92	-16.1896
1336.86	14.162
1335.8	11.6228
1334.74	11.4285
1333.68	18.2717
1332.62	13.3749
1331.56	-5.600284
1330.5	-1.115269
1329.44	26.8147
1328.37	0.803310
1327.31	31.0567
1326.25	9.734577
1325.19	28.2496
1324.12	-2.441081
1323.06	9.034201
1322	11.1345
1320.93	6.206419
1319.87	1.276605
1318.8	1.024690
1317.74	-10.9286
1316.68	-22.8808
1315.61	-6.770022
1314.55	-18.7261
1313.48	-33.0183
1312.42	8.778550
1311.35	8.496957
1310.28	10.5477
1309.22	28.9415
1308.15	0.624807
1307.08	-13.6769
1306.02	0.030551
1304.95	11.3948
1303.88	39.081
1302.82	8.441052
1301.75	-8.197638
1300.68	33.4515
1299.61	40.1158
1298.54	37.4523
1297.47	44.1058
1296.41	29.7887
1295.34	27.1186
1294.27	61.6997
1293.2	54.3617
1292.13	51.678
1291.06	53.6459
1289.99	69.5678
1288.92	111.063
1287.85	145.562
1286.77	247.462
1285.7	349.314
1284.63	341.901
1283.56	332.166
1282.49	278.301
1281.42	291.801
1280.34	293.685
1279.27	309.492
1278.2	325.291
1277.12	343.4
1276.05	440.37
1274.98	456.123
1273.9	571.571
1272.83	874.74
1271.75	1187.05
1270.68	1513.11
1269.61	1547.14
1268.53	1201.3
1267.46	864.872
1266.38	618.881
1265.3	458.638
1264.23	384.087
1263.15	348.899
1262.08	302.16
1261	246.191
1259.92	248.048
1258.84	268.396
1257.77	307.225
1256.69	299.824
1255.61	213.884
1254.53	215.745
1253.46	157.57
1252.38	143.283
1251.3	152.083
1250.22	135.497
1249.14	116.611
1248.06	125.414
1246.98	113.459
1245.9	73.8434
1244.82	84.9571
1243.74	49.9768
1242.66	104.869
1241.58	102.152
1240.5	83.3163
1239.41	151.985
1238.33	163.076
1237.25	135.038
1236.17	203.656
1235.09	306.752
1234	366.106
1232.92	485.222
1231.84	489.341
1230.75	472.775
1229.67	424.049
1228.59	377.644
1227.5	326.669
1226.42	287.201
1225.33	376.323
1224.25	474.592
1223.16	600.358
1222.08	693.952
1220.99	734.749
1219.91	637.93
1218.82	527.401
1217.74	398.586
1216.65	322.544
1215.56	230.501
1214.48	209.518
1213.39	163.356
1212.3	92.0301
1211.21	64.2373
1210.12	66.216
1209.04	38.451
1207.95	19.8541
1206.86	19.569
1205.77	28.4361
1204.68	9.869044
1203.59	34.7453
1202.5	9.340130
1201.41	-4.624501
1200.32	11.1178
1199.23	15.44
1198.14	8.350046
1197.05	10.3998
1195.96	-24.061
1194.87	7.669213
1193.78	2.892005
1192.69	-4.157646
1191.59	9.323805
1190.5	38.7634
1189.41	6.658153
1188.32	81.6714
1187.22	63.2528
1186.13	72.1807
1185.04	138.04
1183.94	210.707
1182.85	278.796
1181.75	258.111
1180.66	207.866
1179.57	180.396
1178.47	123.381
1177.38	130.06
1176.28	118.558
1175.18	75.2515
1174.09	93.318
1172.99	59.1367
1171.9	22.7067
1170.8	65.7702
1169.7	65.6903
1168.61	20.2261
1167.51	2.018047
1166.41	-18.4433
1165.31	-9.403717
1164.21	8.709165
1163.12	15.4859
1162.02	1.868065
1160.92	-16.2686
1159.82	-0.407206
1158.72	-13.9909
1157.62	-13.9744
1156.52	-13.9507
1155.42	-4.865871
1154.32	-11.6189
1153.22	29.1503
1152.12	40.5027
1151.02	83.5177
1149.92	153.652
1148.82	300.618
1147.71	508.544
1146.61	680.232
1145.51	693.724
1144.41	571.711
1143.3	345.893
1142.2	217.253
1141.1	163.156
1139.99	133.911
1138.89	122.732
1137.79	70.9678
1136.68	80.1155
1135.58	35.16
1134.47	26.2931
1133.37	-14.1107
1132.26	40.1306
1131.16	-0.245951
1130.05	47.2248
1128.95	11.3795
1127.84	9.319217
1126.73	18.5174
1125.63	27.7172
1124.52	27.9213
1123.41	43.8727
1122.3	39.5874
1121.2	24.0702
1120.09	71.4904
1118.98	96.4263
1117.87	125.849
1116.76	132.804
1115.65	198.14
1114.54	292.633
1113.43	440.951
1112.33	777.685
1111.21	919.106
1110.11	914.688
1108.99	712.956
1107.88	614.44
1106.77	480.113
1105.66	442.202
1104.55	668.661
1103.44	847.987
1102.33	908.555
1101.21	689.259
1100.1	445.444
1098.99	309.153
1097.88	226.619
1096.76	153.073
1095.65	130.994
1094.54	99.986
1093.42	89.1103
1092.31	84.9461
1091.19	107.596
1090.08	168.21
1088.96	239.965
1087.85	365.272
1086.73	577.579
1085.62	992.871
1084.5	1374.51
1083.38	1564.14
1082.27	1229.6
1081.15	794.886
1080.03	523.091
1078.92	400.738
1077.8	224.966
1076.68	205.206
1075.56	172.093
1074.45	165.714
1073.33	157.112
1072.21	126.256
1071.09	106.54
1069.97	120.201
1068.85	76.0283
1067.73	67.452
1066.61	81.109
1065.49	99.2034
1064.37	95.0673
1063.25	82.0454
1062.13	84.5748
1061.01	113.747
1059.88	169.545
1058.76	305.219
1057.64	538.466
1056.52	496.506
1055.39	310.391
1054.27	210.841
1053.15	157.891
1052.03	78.363
1050.9	69.7801
1049.78	27.9652
1048.65	6.100526
1047.53	15.245
1046.41	57.5908
1045.28	26.8685
1044.15	24.9247
1043.03	14.1273
1041.9	12.1782
1040.78	3.590846
1039.65	-31.529
1038.53	10.728
1037.4	33.0713
1036.27	4.581812
1035.14	9.234220
1034.02	-3.788765
1032.89	7.475947
1031.76	-14.3817
1030.63	21.1446
1029.5	1.488502
1028.38	21.5415
1027.25	15.1142
1026.12	-11.1607
1024.99	28.702
1023.86	0.219098
1022.73	33.4374
1021.6	11.5617
1020.47	11.7126
1019.34	7.452842
1018.2	-1.214732
1017.07	29.7299
1015.94	7.844361
1014.81	-16.2384
1013.68	5.868767
1012.54	19.1629
1011.41	-18.1187
1010.28	-9.236341
1009.15	-9.155250
1008.01	-0.294696
1006.88	-4.624191
1005.75	-11.1556
1004.61	-4.520225
1003.48	17.4677
1002.34	-2.254680
1001.21	-8.813472
1000.07	8.748775
998.936	15.3305
997.8	21.9008
996.664	8.733348
995.527	2.137316
994.391	15.2528
993.254	10.8314
992.117	21.7317
990.979	17.2935
989.842	1.904731
988.704	-4.732603
987.566	3.938708
986.428	-2.713580
985.289	-26.8656
984.15	8.013469
983.011	-3.033030
981.871	14.3249
980.731	-12.0287
979.592	9.674247
978.451	18.2559
977.311	-8.106683
976.17	-1.725039
975.029	-4.083922
973.888	0.094625
972.746	-13.1871
971.604	-4.664239
970.462	19.1074
969.32	-13.8126
968.178	9.933090
967.034	20.587
965.892	0.733152
964.748	-14.7647
963.604	-8.491914
962.46	-10.9371
961.316	-6.860718
960.172	1.556851
959.026	3.436757
957.882	3.133377
956.736	7.170340
955.591	-6.191636
954.445	30.4274
953.299	6.187326
952.152	10.1888
951.006	9.837777
949.859	-7.889621
948.712	4.772577
947.564	-15.1303
946.417	-0.316831
945.27	5.806271
944.121	27.0998
942.973	13.6867
941.824	39.2904
940.675	21.5331
939.525	79.6091
938.376	100.828
937.227	76.5534
936.076	37.128
934.926	90.7927
933.775	57.8631
932.624	3.306857
931.474	9.337458
930.322	6.709299
929.17	-2.409374
928.019	-11.5284
926.866	-14.1652
925.714	13.4427
924.561	-2.168562
923.408	10.2979
922.255	24.913
921.101	-5.812966
919.947	-12.7894
918.793	10.4392
917.639	16.397
916.484	9.409334
915.329	17.5137
914.174	12.6781
913.019	48.7877
911.863	52.5596
910.707	80.0214
909.551	109.622
908.395	72.4619
907.237	35.3172
906.08	0.340030
904.923	14.8628
903.766	5.716118
902.607	-14.1805
901.449	8.931599
900.291	-15.2573
899.133	-2.902249
897.974	-9.890457
896.814	-6.135584
895.655	6.207500
894.495	-13.6605
893.335	0.825064
892.175	-16.8856
891.015	16.9047
889.854	67.8396
888.692	43.6945
887.531	45.2898
886.369	51.1724
885.207	59.1969
884.045	15.7997
882.883	-12.5811
881.72	27.5804
880.557	29.188
879.394	15.814
878.229	11.0085
877.066	-0.209812
875.902	-9.281204
874.737	7.316198
873.573	6.805922
872.408	-2.250739
871.243	18.6182
870.077	73.6643
868.911	81.6975
867.745	83.325
866.579	138.33
865.413	197.583
864.246	389.117
863.079	621.102
861.911	767.665
860.743	720.111
859.576	529.744
858.407	392.758
857.239	287.807
856.07	174.389
854.901	112.148
853.731	84.0143
852.562	38.8684
851.393	4.392040
850.223	1.857491
849.052	9.967628
847.881	-13.8233
846.71	0.679597
845.539	-6.076695
844.367	-10.6976
843.195	-0.434551
842.023	-17.7867
840.852	-7.512225
839.679	23.9989
838.506	15.1671
837.332	12.7141
836.159	33.6113
834.985	24.8063
833.812	22.3761
832.637	13.5934
831.462	30.2619
830.287	38.4528
829.112	59.3615
827.937	63.3208
826.762	105.409
825.585	143.251
824.409	178.965
823.232	252.767
822.056	472.541
820.879	865.683
819.701	835.663
818.523	496.961
817.346	268.351
816.168	120.167
814.989	52.3524
813.811	83.8617
812.632	85.7974
811.452	134.191
810.272	91.8011
809.093	51.5494
807.912	55.633
806.732	36.5192
805.552	38.5114
804.37	63.703
803.189	90.9984
802.008	135.148
800.826	208.781
799.644	290.812
798.461	518.12
797.278	913.761
796.096	1536.55
794.912	1944.41
793.729	1733.52
792.545	1110.47
791.361	660.16
790.177	426.622
788.992	226.831
787.808	180.546
786.622	172.106
785.437	90.1606
784.251	71.258
783.064	31.376
781.879	39.7937
780.691	16.7366
779.505	6.283104
778.317	8.424303
777.13	0.084706
775.942	-27.1142
774.755	2.294566
773.566	-12.3105
772.378	-16.4298
771.188	-12.1655
770	0.476096
768.811	0.554541
767.62	6.915071
766.431	-1.371662
765.24	30.0953
764.05	0.897938
762.858	13.5358
761.668	3.174550
760.477	30.4393
759.284	47.2454
758.093	55.6889
756.9	68.3065
755.708	118.502
754.515	187.461
753.322	333.605
752.129	594.435
750.935	848.883
749.741	884.234
748.547	675.626
747.352	354.556
746.157	242.034
744.962	135.816
743.767	79.6374
742.571	40.1437
741.375	58.962
740.179	50.7094
738.982	52.8627
737.785	42.5291
736.588	-1.083036
735.391	28.1043
734.193	24.0098
732.995	30.3055
731.797	9.579728
730.599	7.556624
729.399	20.0686
728.2	38.7988
727.001	-4.765911
725.801	13.95
724.602	22.2758
723.401	61.7092
722.2	20.2302
720.999	47.1908
719.799	90.7158
718.597	90.6894
717.396	105.16
716.193	103.043
714.991	177.549
713.788	167.118
712.586	235.346
711.383	270.42
710.179	241.327
708.976	352.902
707.771	545.069
706.566	838.445
705.362	1673.25
704.157	3402.46
702.952	5120.51
701.747	4664.73
700.541	2699.57
699.335	1546.73
698.129	1013.67
696.922	804.833
695.715	647.667
694.508	451.377
693.301	263.419
692.093	186.868
690.885	133.016
689.676	105.967
688.468	120.124
687.259	103.368
686.049	72.1961
684.84	90.4361
683.63	81.9007
682.42	87.7626
681.209	77.1538
679.999	97.39
678.788	82.651
677.576	86.4099
676.365	100.433
675.153	85.6738
673.94	130.483
672.729	140.349
671.516	201.53
670.303	238.041
669.089	270.419
667.876	257.636
666.662	255.106
665.447	215.656
664.233	202.87
663.019	212.629
661.803	179.341
660.588	178.843
659.372	135.324
658.156	136.871
656.94	126.127
655.724	80.5867
654.507	129.193
653.289	194.136
652.072	459.484
650.854	1019.15
649.637	1351.63
648.418	1179.11
647.199	538.757
645.98	258.248
644.762	171.895
643.542	142.754
642.322	83.0062
641.102	45.7364
639.882	43.1718
638.661	67.1277
637.44	11.5377
636.219	11.0268
634.997	22.7495
633.775	3.901553
632.554	9.516043
631.331	2.910923
630.108	-15.9039
628.885	-4.164618
627.662	5.540945
626.438	-7.135255
625.214	-11.6593
623.99	18.4057
622.766	-4.404588
621.541	1.268568
620.315	17.1125
619.09	-11.7431
617.864	8.184287
616.639	9.836476
615.412	-37.2307
614.186	-13.2088
612.959	-7.448522
611.731	-1.674737
610.504	-4.000673
609.276	-2.251313
608.048	-6.566964
606.82	11.4371
605.591	7.159731
604.362	31.2709
603.133	10.8284
601.903	0.543549
600.674	6.483642
599.443	26.6133
598.213	24.4972
596.982	46.6847
595.751	14.2746
594.52	58.7489
593.288	66.8375
592.057	93.1398
590.824	212.409
589.592	303.366
588.358	307.457
587.126	257.056
585.893	176.426
584.658	166.504
583.425	160.651
582.19	179.038
580.955	185.344
579.721	207.807
578.485	262.542
577.25	295.11
576.014	293.44
574.777	217.268
573.541	155.259
572.305	177.869
571.067	158.226
569.83	102.396
568.593	78.8103
567.354	73.3643
566.116	63.9238
564.878	82.6575
563.639	31.057
562.4	43.8049
561.16	38.487
559.921	19.1303
558.681	17.8724
557.44	8.600248
556.199	23.4308
554.959	70.3693
553.718	43.0711
552.476	45.8769
551.234	44.6748
549.992	71.5397
548.749	118.432
547.507	187.336
546.264	250.19
545.021	200.855
543.776	173.554
542.532	112.22
541.288	76.9073
540.044	33.5825
538.799	38.2527
537.554	28.8864
536.309	29.4793
535.062	6.040838
533.816	-13.442
532.57	10.9772
531.323	5.361381
530.076	-0.322655
528.829	13.8815
527.581	-7.930712
526.334	-5.880616
525.085	-5.926335
523.837	9.874695
522.588	21.5634
521.339	-20.7008
520.09	10.6584
518.84	25.9179
517.59	13.1281
516.339	24.076
515.089	24.8884
513.838	-2.354704
512.586	-1.925252
511.335	-11.6541
510.083	0.275149
508.831	4.006494
507.578	15.4346
506.325	-17.1359
505.072	-16.191
503.819	8.296062
502.565	4.650159
501.312	-3.294710
500.057	-19.5264
498.803	3.582121
497.548	-9.422782
496.292	-8.942154
495.037	10.9524
493.781	24.4416